onset	duration	sample	value	event_code	user_answer	correct_answer	target_count
0	n/a	0	break cnt	break cnt	n/a	n/a	8
30.65	n/a	15325	seqLearning_start	91	n/a	n/a	8
36.914	n/a	18457	learningBlock_1	31	n/a	n/a	8
36.942	n/a	18471	dot_no1_ON	11	n/a	n/a	8
37.532	n/a	18766	dot_no1_OFF	21	n/a	n/a	8
38.852	n/a	19426	dot_no6_ON	16	n/a	n/a	8
39.432	n/a	19716	dot_no6_OFF	26	n/a	n/a	8
40.752	n/a	20376	dot_no4_ON	14	n/a	n/a	8
41.332	n/a	20666	dot_no4_OFF	24	n/a	n/a	8
42.652	n/a	21326	dot_no2_ON	12	n/a	n/a	8
43.232	n/a	21616	dot_no2_OFF	22	n/a	n/a	8
44.552	n/a	22276	dot_no7_ON	17	n/a	n/a	8
45.132	n/a	22566	dot_no7_OFF	27	n/a	n/a	8
46.452	n/a	23226	dot_no3_ON	13	n/a	n/a	8
47.032	n/a	23516	dot_no3_OFF	23	n/a	n/a	8
48.352	n/a	24176	dot_no8_ON	18	n/a	n/a	8
48.932	n/a	24466	dot_no8_OFF	28	n/a	n/a	8
50.252	n/a	25126	dot_no5_ON	15	n/a	n/a	8
50.842	n/a	25421	dot_no5_OFF	25	n/a	n/a	8
52.162	n/a	26081	dot_no2_ON	12	n/a	n/a	8
52.742	n/a	26371	dot_no2_OFF	22	n/a	n/a	8
54.062	n/a	27031	dot_no7_ON	17	n/a	n/a	8
54.642	n/a	27321	dot_no7_OFF	27	1-6-2-5-8-3-7-4-7-1	1-6-4-2-7-3-8-5-2-7	8
103.634	n/a	51817	learningBlock_2	32	n/a	n/a	8
103.642	n/a	51821	dot_no1_ON	11	n/a	n/a	8
104.232	n/a	52116	dot_no1_OFF	21	n/a	n/a	8
105.552	n/a	52776	dot_no6_ON	16	n/a	n/a	8
106.132	n/a	53066	dot_no6_OFF	26	n/a	n/a	8
107.452	n/a	53726	dot_no4_ON	14	n/a	n/a	8
108.032	n/a	54016	dot_no4_OFF	24	n/a	n/a	8
109.352	n/a	54676	dot_no2_ON	12	n/a	n/a	8
109.932	n/a	54966	dot_no2_OFF	22	n/a	n/a	8
111.252	n/a	55626	dot_no7_ON	17	n/a	n/a	8
111.834	n/a	55917	dot_no7_OFF	27	n/a	n/a	8
113.152	n/a	56576	dot_no3_ON	13	n/a	n/a	8
113.732	n/a	56866	dot_no3_OFF	23	n/a	n/a	8
115.052	n/a	57526	dot_no8_ON	18	n/a	n/a	8
115.632	n/a	57816	dot_no8_OFF	28	n/a	n/a	8
116.952	n/a	58476	dot_no5_ON	15	n/a	n/a	8
117.532	n/a	58766	dot_no5_OFF	25	n/a	n/a	8
118.852	n/a	59426	dot_no2_ON	12	n/a	n/a	8
119.432	n/a	59716	dot_no2_OFF	22	n/a	n/a	8
120.754	n/a	60377	dot_no7_ON	17	n/a	n/a	8
121.334	n/a	60667	dot_no7_OFF	27	1-6-2-4-7-8-5-3-7-1	1-6-4-2-7-3-8-5-2-7	8
154.516	n/a	77258	learningBlock_3	33	n/a	n/a	8
154.524	n/a	77262	dot_no1_ON	11	n/a	n/a	8
155.104	n/a	77552	dot_no1_OFF	21	n/a	n/a	8
156.424	n/a	78212	dot_no6_ON	16	n/a	n/a	8
157.004	n/a	78502	dot_no6_OFF	26	n/a	n/a	8
158.324	n/a	79162	dot_no4_ON	14	n/a	n/a	8
158.904	n/a	79452	dot_no4_OFF	24	n/a	n/a	8
160.224	n/a	80112	dot_no2_ON	12	n/a	n/a	8
160.804	n/a	80402	dot_no2_OFF	22	n/a	n/a	8
162.124	n/a	81062	dot_no7_ON	17	n/a	n/a	8
162.704	n/a	81352	dot_no7_OFF	27	n/a	n/a	8
164.024	n/a	82012	dot_no3_ON	13	n/a	n/a	8
164.604	n/a	82302	dot_no3_OFF	23	n/a	n/a	8
165.924	n/a	82962	dot_no8_ON	18	n/a	n/a	8
166.504	n/a	83252	dot_no8_OFF	28	n/a	n/a	8
167.824	n/a	83912	dot_no5_ON	15	n/a	n/a	8
168.404	n/a	84202	dot_no5_OFF	25	n/a	n/a	8
169.724	n/a	84862	dot_no2_ON	12	n/a	n/a	8
170.304	n/a	85152	dot_no2_OFF	22	n/a	n/a	8
171.624	n/a	85812	dot_no7_ON	17	n/a	n/a	8
172.204	n/a	86102	dot_no7_OFF	27	1-6-4-2-8-3-7-5-1-7	1-6-4-2-7-3-8-5-2-7	8
203.458	n/a	101729	learningBlock_4	34	n/a	n/a	8
203.464	n/a	101732	dot_no1_ON	11	n/a	n/a	8
204.044	n/a	102022	dot_no1_OFF	21	n/a	n/a	8
205.364	n/a	102682	dot_no6_ON	16	n/a	n/a	8
205.944	n/a	102972	dot_no6_OFF	26	n/a	n/a	8
207.264	n/a	103632	dot_no4_ON	14	n/a	n/a	8
207.844	n/a	103922	dot_no4_OFF	24	n/a	n/a	8
209.166	n/a	104583	dot_no2_ON	12	n/a	n/a	8
209.744	n/a	104872	dot_no2_OFF	22	n/a	n/a	8
211.064	n/a	105532	dot_no7_ON	17	n/a	n/a	8
211.646	n/a	105823	dot_no7_OFF	27	n/a	n/a	8
212.966	n/a	106483	dot_no3_ON	13	n/a	n/a	8
213.546	n/a	106773	dot_no3_OFF	23	n/a	n/a	8
214.866	n/a	107433	dot_no8_ON	18	n/a	n/a	8
215.446	n/a	107723	dot_no8_OFF	28	n/a	n/a	8
216.766	n/a	108383	dot_no5_ON	15	n/a	n/a	8
217.356	n/a	108678	dot_no5_OFF	25	n/a	n/a	8
218.676	n/a	109338	dot_no2_ON	12	n/a	n/a	8
219.256	n/a	109628	dot_no2_OFF	22	n/a	n/a	8
220.576	n/a	110288	dot_no7_ON	17	n/a	n/a	8
221.156	n/a	110578	dot_no7_OFF	27	1-5-6-2-4-3-7-8-7-4	1-6-4-2-7-3-8-5-2-7	8
257.686	n/a	128843	learningBlock_5	35	n/a	n/a	8
257.696	n/a	128848	dot_no1_ON	11	n/a	n/a	8
258.276	n/a	129138	dot_no1_OFF	21	n/a	n/a	8
259.596	n/a	129798	dot_no6_ON	16	n/a	n/a	8
260.176	n/a	130088	dot_no6_OFF	26	n/a	n/a	8
261.496	n/a	130748	dot_no4_ON	14	n/a	n/a	8
262.076	n/a	131038	dot_no4_OFF	24	n/a	n/a	8
263.396	n/a	131698	dot_no2_ON	12	n/a	n/a	8
263.976	n/a	131988	dot_no2_OFF	22	n/a	n/a	8
265.296	n/a	132648	dot_no7_ON	17	n/a	n/a	8
265.876	n/a	132938	dot_no7_OFF	27	n/a	n/a	8
267.196	n/a	133598	dot_no3_ON	13	n/a	n/a	8
267.776	n/a	133888	dot_no3_OFF	23	n/a	n/a	8
269.096	n/a	134548	dot_no8_ON	18	n/a	n/a	8
269.676	n/a	134838	dot_no8_OFF	28	n/a	n/a	8
270.996	n/a	135498	dot_no5_ON	15	n/a	n/a	8
271.586	n/a	135793	dot_no5_OFF	25	n/a	n/a	8
272.906	n/a	136453	dot_no2_ON	12	n/a	n/a	8
273.486	n/a	136743	dot_no2_OFF	22	n/a	n/a	8
274.806	n/a	137403	dot_no7_ON	17	n/a	n/a	8
275.396	n/a	137698	dot_no7_OFF	27	1-6-4-2-3-7-8-5-1-6	1-6-4-2-7-3-8-5-2-7	8
306.73	n/a	153365	seqLearning_stop	50	n/a	n/a	8
311.573	n/a	155786.5	boundary	boundary	n/a	n/a	8
