onset	duration	sample	value	event_code	user_answer	correct_answer	target_count
0	n/a	0	break cnt	break cnt	n/a	n/a	8
31.796	n/a	15898	seqLearning_start	91	n/a	n/a	8
38.082	n/a	19041	learningBlock_1	31	n/a	n/a	8
38.114	n/a	19057	dot_no1_ON	11	n/a	n/a	8
38.702	n/a	19351	dot_no1_OFF	21	n/a	n/a	8
40.022	n/a	20011	dot_no6_ON	16	n/a	n/a	8
40.602	n/a	20301	dot_no6_OFF	26	n/a	n/a	8
41.922	n/a	20961	dot_no4_ON	14	n/a	n/a	8
42.512	n/a	21256	dot_no4_OFF	24	n/a	n/a	8
43.832	n/a	21916	dot_no2_ON	12	n/a	n/a	8
44.412	n/a	22206	dot_no2_OFF	22	n/a	n/a	8
45.742	n/a	22871	dot_no7_ON	17	n/a	n/a	8
46.322	n/a	23161	dot_no7_OFF	27	n/a	n/a	8
47.642	n/a	23821	dot_no3_ON	13	n/a	n/a	8
48.222	n/a	24111	dot_no3_OFF	23	n/a	n/a	8
49.542	n/a	24771	dot_no8_ON	18	n/a	n/a	8
50.122	n/a	25061	dot_no8_OFF	28	n/a	n/a	8
51.442	n/a	25721	dot_no5_ON	15	n/a	n/a	8
52.022	n/a	26011	dot_no5_OFF	25	n/a	n/a	8
53.342	n/a	26671	dot_no2_ON	12	n/a	n/a	8
53.922	n/a	26961	dot_no2_OFF	22	n/a	n/a	8
55.242	n/a	27621	dot_no7_ON	17	n/a	n/a	8
55.822	n/a	27911	dot_no7_OFF	27	1-6-4-2-8-5-3-7-3-3	1-6-4-2-7-3-8-5-2-7	8
100.344	n/a	50172	learningBlock_2	32	n/a	n/a	8
100.36	n/a	50180	dot_no1_ON	11	n/a	n/a	8
100.94	n/a	50470	dot_no1_OFF	21	n/a	n/a	8
102.26	n/a	51130	dot_no6_ON	16	n/a	n/a	8
102.84	n/a	51420	dot_no6_OFF	26	n/a	n/a	8
104.16	n/a	52080	dot_no4_ON	14	n/a	n/a	8
104.74	n/a	52370	dot_no4_OFF	24	n/a	n/a	8
106.06	n/a	53030	dot_no2_ON	12	n/a	n/a	8
106.64	n/a	53320	dot_no2_OFF	22	n/a	n/a	8
107.96	n/a	53980	dot_no7_ON	17	n/a	n/a	8
108.54	n/a	54270	dot_no7_OFF	27	n/a	n/a	8
109.86	n/a	54930	dot_no3_ON	13	n/a	n/a	8
110.44	n/a	55220	dot_no3_OFF	23	n/a	n/a	8
111.76	n/a	55880	dot_no8_ON	18	n/a	n/a	8
112.34	n/a	56170	dot_no8_OFF	28	n/a	n/a	8
113.66	n/a	56830	dot_no5_ON	15	n/a	n/a	8
114.24	n/a	57120	dot_no5_OFF	25	n/a	n/a	8
115.56	n/a	57780	dot_no2_ON	12	n/a	n/a	8
116.14	n/a	58070	dot_no2_OFF	22	n/a	n/a	8
117.46	n/a	58730	dot_no7_ON	17	n/a	n/a	8
118.04	n/a	59020	dot_no7_OFF	27	1-6-4-8-2-7-5-3-2-7	1-6-4-2-7-3-8-5-2-7	8
140.774	n/a	70387	learningBlock_3	33	n/a	n/a	8
140.78	n/a	70390	dot_no1_ON	11	n/a	n/a	8
141.36	n/a	70680	dot_no1_OFF	21	n/a	n/a	8
142.68	n/a	71340	dot_no6_ON	16	n/a	n/a	8
143.26	n/a	71630	dot_no6_OFF	26	n/a	n/a	8
144.58	n/a	72290	dot_no4_ON	14	n/a	n/a	8
145.16	n/a	72580	dot_no4_OFF	24	n/a	n/a	8
146.48	n/a	73240	dot_no2_ON	12	n/a	n/a	8
147.06	n/a	73530	dot_no2_OFF	22	n/a	n/a	8
148.38	n/a	74190	dot_no7_ON	17	n/a	n/a	8
148.96	n/a	74480	dot_no7_OFF	27	n/a	n/a	8
150.28	n/a	75140	dot_no3_ON	13	n/a	n/a	8
150.86	n/a	75430	dot_no3_OFF	23	n/a	n/a	8
152.18	n/a	76090	dot_no8_ON	18	n/a	n/a	8
152.76	n/a	76380	dot_no8_OFF	28	n/a	n/a	8
154.08	n/a	77040	dot_no5_ON	15	n/a	n/a	8
154.66	n/a	77330	dot_no5_OFF	25	n/a	n/a	8
155.98	n/a	77990	dot_no2_ON	12	n/a	n/a	8
156.56	n/a	78280	dot_no2_OFF	22	n/a	n/a	8
157.88	n/a	78940	dot_no7_ON	17	n/a	n/a	8
158.46	n/a	79230	dot_no7_OFF	27	1-6-4-2-7-8-5-3-2-7	1-6-4-2-7-3-8-5-2-7	8
179.662	n/a	89831	learningBlock_4	34	n/a	n/a	8
179.67	n/a	89835	dot_no1_ON	11	n/a	n/a	8
180.25	n/a	90125	dot_no1_OFF	21	n/a	n/a	8
181.57	n/a	90785	dot_no6_ON	16	n/a	n/a	8
182.15	n/a	91075	dot_no6_OFF	26	n/a	n/a	8
183.47	n/a	91735	dot_no4_ON	14	n/a	n/a	8
184.05	n/a	92025	dot_no4_OFF	24	n/a	n/a	8
185.37	n/a	92685	dot_no2_ON	12	n/a	n/a	8
185.96	n/a	92980	dot_no2_OFF	22	n/a	n/a	8
187.28	n/a	93640	dot_no7_ON	17	n/a	n/a	8
187.86	n/a	93930	dot_no7_OFF	27	n/a	n/a	8
189.18	n/a	94590	dot_no3_ON	13	n/a	n/a	8
189.76	n/a	94880	dot_no3_OFF	23	n/a	n/a	8
191.08	n/a	95540	dot_no8_ON	18	n/a	n/a	8
191.66	n/a	95830	dot_no8_OFF	28	n/a	n/a	8
192.98	n/a	96490	dot_no5_ON	15	n/a	n/a	8
193.57	n/a	96785	dot_no5_OFF	25	n/a	n/a	8
194.89	n/a	97445	dot_no2_ON	12	n/a	n/a	8
195.48	n/a	97740	dot_no2_OFF	22	n/a	n/a	8
196.8	n/a	98400	dot_no7_ON	17	n/a	n/a	8
197.38	n/a	98690	dot_no7_OFF	27	1-6-4-3-2-8-7-5-2-7	1-6-4-2-7-3-8-5-2-7	8
233.122	n/a	116561	learningBlock_5	35	n/a	n/a	8
233.128	n/a	116564	dot_no1_ON	11	n/a	n/a	8
233.708	n/a	116854	dot_no1_OFF	21	n/a	n/a	8
235.028	n/a	117514	dot_no6_ON	16	n/a	n/a	8
235.608	n/a	117804	dot_no6_OFF	26	n/a	n/a	8
236.928	n/a	118464	dot_no4_ON	14	n/a	n/a	8
237.508	n/a	118754	dot_no4_OFF	24	n/a	n/a	8
238.828	n/a	119414	dot_no2_ON	12	n/a	n/a	8
239.408	n/a	119704	dot_no2_OFF	22	n/a	n/a	8
240.728	n/a	120364	dot_no7_ON	17	n/a	n/a	8
241.308	n/a	120654	dot_no7_OFF	27	n/a	n/a	8
242.628	n/a	121314	dot_no3_ON	13	n/a	n/a	8
243.208	n/a	121604	dot_no3_OFF	23	n/a	n/a	8
244.528	n/a	122264	dot_no8_ON	18	n/a	n/a	8
245.108	n/a	122554	dot_no8_OFF	28	n/a	n/a	8
246.428	n/a	123214	dot_no5_ON	15	n/a	n/a	8
247.008	n/a	123504	dot_no5_OFF	25	n/a	n/a	8
248.328	n/a	124164	dot_no2_ON	12	n/a	n/a	8
248.908	n/a	124454	dot_no2_OFF	22	n/a	n/a	8
250.228	n/a	125114	dot_no7_ON	17	n/a	n/a	8
250.818	n/a	125409	dot_no7_OFF	27	1-6-4-3-7-8-5-2-7-5	1-6-4-2-7-3-8-5-2-7	8
272.87	n/a	136435	seqLearning_stop	50	n/a	n/a	8
277.279	n/a	138639.5	boundary	boundary	n/a	n/a	8
