onset	duration	sample	value	event_code	user_answer	correct_answer	target_count
0	n/a	0	break cnt	break cnt	n/a	n/a	8
94.82	n/a	47410	seqLearning_start	91	n/a	n/a	8
104.162	n/a	52081	learningBlock_1	31	n/a	n/a	8
104.19	n/a	52095	dot_no1_ON	11	n/a	n/a	8
104.78	n/a	52390	dot_no1_OFF	21	n/a	n/a	8
106.1	n/a	53050	dot_no6_ON	16	n/a	n/a	8
106.688	n/a	53344	dot_no6_OFF	26	n/a	n/a	8
108.01	n/a	54005	dot_no4_ON	14	n/a	n/a	8
108.598	n/a	54299	dot_no4_OFF	24	n/a	n/a	8
109.92	n/a	54960	dot_no2_ON	12	n/a	n/a	8
110.508	n/a	55254	dot_no2_OFF	22	n/a	n/a	8
111.83	n/a	55915	dot_no7_ON	17	n/a	n/a	8
112.418	n/a	56209	dot_no7_OFF	27	n/a	n/a	8
113.74	n/a	56870	dot_no3_ON	13	n/a	n/a	8
114.328	n/a	57164	dot_no3_OFF	23	n/a	n/a	8
115.65	n/a	57825	dot_no8_ON	18	n/a	n/a	8
116.238	n/a	58119	dot_no8_OFF	28	n/a	n/a	8
117.56	n/a	58780	dot_no5_ON	15	n/a	n/a	8
118.15	n/a	59075	dot_no5_OFF	25	n/a	n/a	8
119.47	n/a	59735	dot_no2_ON	12	n/a	n/a	8
120.06	n/a	60030	dot_no2_OFF	22	n/a	n/a	8
121.38	n/a	60690	dot_no7_ON	17	n/a	n/a	8
121.968	n/a	60984	dot_no7_OFF	27	1-6-4-2-5-3-1-3-3-5	1-6-4-2-7-3-8-5-2-7	8
153.778	n/a	76889	learningBlock_2	32	n/a	n/a	8
153.79	n/a	76895	dot_no1_ON	11	n/a	n/a	8
154.38	n/a	77190	dot_no1_OFF	21	n/a	n/a	8
155.7	n/a	77850	dot_no6_ON	16	n/a	n/a	8
156.29	n/a	78145	dot_no6_OFF	26	n/a	n/a	8
157.61	n/a	78805	dot_no4_ON	14	n/a	n/a	8
158.2	n/a	79100	dot_no4_OFF	24	n/a	n/a	8
159.52	n/a	79760	dot_no2_ON	12	n/a	n/a	8
160.11	n/a	80055	dot_no2_OFF	22	n/a	n/a	8
161.43	n/a	80715	dot_no7_ON	17	n/a	n/a	8
162.02	n/a	81010	dot_no7_OFF	27	n/a	n/a	8
163.34	n/a	81670	dot_no3_ON	13	n/a	n/a	8
163.93	n/a	81965	dot_no3_OFF	23	n/a	n/a	8
165.25	n/a	82625	dot_no8_ON	18	n/a	n/a	8
165.84	n/a	82920	dot_no8_OFF	28	n/a	n/a	8
167.16	n/a	83580	dot_no5_ON	15	n/a	n/a	8
167.75	n/a	83875	dot_no5_OFF	25	n/a	n/a	8
169.07	n/a	84535	dot_no2_ON	12	n/a	n/a	8
169.66	n/a	84830	dot_no2_OFF	22	n/a	n/a	8
170.98	n/a	85490	dot_no7_ON	17	n/a	n/a	8
171.57	n/a	85785	dot_no7_OFF	27	1-5-3-8-4-2-7-4-2-7	1-6-4-2-7-3-8-5-2-7	8
194.056	n/a	97028	learningBlock_3	33	n/a	n/a	8
194.07	n/a	97035	dot_no1_ON	11	n/a	n/a	8
194.66	n/a	97330	dot_no1_OFF	21	n/a	n/a	8
195.98	n/a	97990	dot_no6_ON	16	n/a	n/a	8
196.57	n/a	98285	dot_no6_OFF	26	n/a	n/a	8
197.89	n/a	98945	dot_no4_ON	14	n/a	n/a	8
198.48	n/a	99240	dot_no4_OFF	24	n/a	n/a	8
199.8	n/a	99900	dot_no2_ON	12	n/a	n/a	8
200.39	n/a	100195	dot_no2_OFF	22	n/a	n/a	8
201.71	n/a	100855	dot_no7_ON	17	n/a	n/a	8
202.3	n/a	101150	dot_no7_OFF	27	n/a	n/a	8
203.62	n/a	101810	dot_no3_ON	13	n/a	n/a	8
204.21	n/a	102105	dot_no3_OFF	23	n/a	n/a	8
205.53	n/a	102765	dot_no8_ON	18	n/a	n/a	8
206.12	n/a	103060	dot_no8_OFF	28	n/a	n/a	8
207.44	n/a	103720	dot_no5_ON	15	n/a	n/a	8
208.03	n/a	104015	dot_no5_OFF	25	n/a	n/a	8
209.35	n/a	104675	dot_no2_ON	12	n/a	n/a	8
209.94	n/a	104970	dot_no2_OFF	22	n/a	n/a	8
211.26	n/a	105630	dot_no7_ON	17	n/a	n/a	8
211.85	n/a	105925	dot_no7_OFF	27	1-5-3-1-2-4-8-6-3-7	1-6-4-2-7-3-8-5-2-7	8
239.874	n/a	119937	learningBlock_4	34	n/a	n/a	8
239.88	n/a	119940	dot_no1_ON	11	n/a	n/a	8
240.47	n/a	120235	dot_no1_OFF	21	n/a	n/a	8
241.792	n/a	120896	dot_no6_ON	16	n/a	n/a	8
242.38	n/a	121190	dot_no6_OFF	26	n/a	n/a	8
243.7	n/a	121850	dot_no4_ON	14	n/a	n/a	8
244.29	n/a	122145	dot_no4_OFF	24	n/a	n/a	8
245.61	n/a	122805	dot_no2_ON	12	n/a	n/a	8
246.2	n/a	123100	dot_no2_OFF	22	n/a	n/a	8
247.52	n/a	123760	dot_no7_ON	17	n/a	n/a	8
248.11	n/a	124055	dot_no7_OFF	27	n/a	n/a	8
249.43	n/a	124715	dot_no3_ON	13	n/a	n/a	8
250.02	n/a	125010	dot_no3_OFF	23	n/a	n/a	8
251.34	n/a	125670	dot_no8_ON	18	n/a	n/a	8
251.93	n/a	125965	dot_no8_OFF	28	n/a	n/a	8
253.25	n/a	126625	dot_no5_ON	15	n/a	n/a	8
253.84	n/a	126920	dot_no5_OFF	25	n/a	n/a	8
255.162	n/a	127581	dot_no2_ON	12	n/a	n/a	8
255.75	n/a	127875	dot_no2_OFF	22	n/a	n/a	8
257.072	n/a	128536	dot_no7_ON	17	n/a	n/a	8
257.66	n/a	128830	dot_no7_OFF	27	1-4-2-6-3-5-8-3-7-4	1-6-4-2-7-3-8-5-2-7	8
282.176	n/a	141088	learningBlock_5	35	n/a	n/a	8
282.192	n/a	141096	dot_no1_ON	11	n/a	n/a	8
282.78	n/a	141390	dot_no1_OFF	21	n/a	n/a	8
284.1	n/a	142050	dot_no6_ON	16	n/a	n/a	8
284.69	n/a	142345	dot_no6_OFF	26	n/a	n/a	8
286.012	n/a	143006	dot_no4_ON	14	n/a	n/a	8
286.6	n/a	143300	dot_no4_OFF	24	n/a	n/a	8
287.922	n/a	143961	dot_no2_ON	12	n/a	n/a	8
288.51	n/a	144255	dot_no2_OFF	22	n/a	n/a	8
289.832	n/a	144916	dot_no7_ON	17	n/a	n/a	8
290.42	n/a	145210	dot_no7_OFF	27	n/a	n/a	8
291.742	n/a	145871	dot_no3_ON	13	n/a	n/a	8
292.33	n/a	146165	dot_no3_OFF	23	n/a	n/a	8
293.652	n/a	146826	dot_no8_ON	18	n/a	n/a	8
294.24	n/a	147120	dot_no8_OFF	28	n/a	n/a	8
295.562	n/a	147781	dot_no5_ON	15	n/a	n/a	8
296.15	n/a	148075	dot_no5_OFF	25	n/a	n/a	8
297.472	n/a	148736	dot_no2_ON	12	n/a	n/a	8
298.06	n/a	149030	dot_no2_OFF	22	n/a	n/a	8
299.38	n/a	149690	dot_no7_ON	17	n/a	n/a	8
299.97	n/a	149985	dot_no7_OFF	27	1-5-4-2-7-3-6-2-2-7	1-6-4-2-7-3-8-5-2-7	8
320.108	n/a	160054	seqLearning_stop	50	n/a	n/a	8
322.501	n/a	161250.5	boundary	boundary	n/a	n/a	8
