onset	duration	sample	value	event_code	user_answer	correct_answer
0	n/a	0	break cnt	break cnt	n/a	n/a
27.122	n/a	13561	symbolSearch_start	92	n/a	n/a
33.034	n/a	16517	newPage	20	n/a	n/a
36.664	n/a	18332	trialResponse	14	0	0
39.054	n/a	19527	trialResponse	14	1	1
42.53	n/a	21265	trialResponse	14	0	0
47.508	n/a	23754	trialResponse	14	0	0
52.044	n/a	26022	trialResponse	14	0	0
55.57	n/a	27785	trialResponse	14	1	1
59.116	n/a	29558	trialResponse	14	0	0
61.892	n/a	30946	trialResponse	14	1	1
65.036	n/a	32518	trialResponse	14	0	0
67.524	n/a	33762	trialResponse	14	0	0
70.876	n/a	35438	trialResponse	14	0	0
73.18	n/a	36590	trialResponse	14	1	1
75.218	n/a	37609	trialResponse	14	0	0
79.044	n/a	39522	trialResponse	14	1	1
81.044	n/a	40522	trialResponse	14	1	1
81.772	n/a	40886	newPage	20	n/a	n/a
85.908	n/a	42954	trialResponse	14	1	1
88.044	n/a	44022	trialResponse	14	1	1
94.98	n/a	47490	trialResponse	14	0	0
97.41	n/a	48705	trialResponse	14	1	1
101.228	n/a	50614	trialResponse	14	0	0
104.194	n/a	52097	trialResponse	14	1	1
107.756	n/a	53878	trialResponse	14	0	0
110.452	n/a	55226	trialResponse	14	1	1
115.932	n/a	57966	trialResponse	14	1	1
118.588	n/a	59294	trialResponse	14	0	0
121.364	n/a	60682	trialResponse	14	1	1
124.378	n/a	62189	trialResponse	14	0	0
127.13	n/a	63565	trialResponse	14	1	1
129.434	n/a	64717	trialResponse	14	1	1
132.548	n/a	66274	trialResponse	14	0	0
133.324	n/a	66662	newPage	20	n/a	n/a
139.684	n/a	69842	trialResponse	14	0	0
141.98	n/a	70990	trialResponse	14	1	1
144.412	n/a	72206	trialResponse	14	1	1
148.234	n/a	74117	trialResponse	14	0	0
150.426	n/a	75213	trialResponse	14	1	1
155.202	n/a	77601	trialResponse	14	0	0
155.222	n/a	77611	newPage	20	n/a	n/a
160.553	n/a	80276.5	boundary	boundary	n/a	n/a
