onset	duration	sample	value	event_code	user_answer	correct_answer	target_count
0	n/a	0	break cnt	break cnt	n/a	n/a	8
24.812	n/a	12406	seqLearning_start	91	n/a	n/a	8
31.076	n/a	15538	learningBlock_1	31	n/a	n/a	8
31.104	n/a	15552	dot_no1_ON	11	n/a	n/a	8
31.694	n/a	15847	dot_no1_OFF	21	n/a	n/a	8
33.012	n/a	16506	dot_no6_ON	16	n/a	n/a	8
33.592	n/a	16796	dot_no6_OFF	26	n/a	n/a	8
34.912	n/a	17456	dot_no4_ON	14	n/a	n/a	8
35.492	n/a	17746	dot_no4_OFF	24	n/a	n/a	8
36.812	n/a	18406	dot_no2_ON	12	n/a	n/a	8
37.392	n/a	18696	dot_no2_OFF	22	n/a	n/a	8
38.712	n/a	19356	dot_no7_ON	17	n/a	n/a	8
39.292	n/a	19646	dot_no7_OFF	27	n/a	n/a	8
40.612	n/a	20306	dot_no3_ON	13	n/a	n/a	8
41.192	n/a	20596	dot_no3_OFF	23	n/a	n/a	8
42.512	n/a	21256	dot_no8_ON	18	n/a	n/a	8
43.102	n/a	21551	dot_no8_OFF	28	n/a	n/a	8
44.422	n/a	22211	dot_no5_ON	15	n/a	n/a	8
45.002	n/a	22501	dot_no5_OFF	25	n/a	n/a	8
46.322	n/a	23161	dot_no2_ON	12	n/a	n/a	8
46.902	n/a	23451	dot_no2_OFF	22	n/a	n/a	8
48.222	n/a	24111	dot_no7_ON	17	n/a	n/a	8
48.812	n/a	24406	dot_no7_OFF	27	1-6-4-2-5-8-3-7-7-2	1-6-4-2-7-3-8-5-2-7	8
88.954	n/a	44477	learningBlock_2	32	n/a	n/a	8
88.962	n/a	44481	dot_no1_ON	11	n/a	n/a	8
89.542	n/a	44771	dot_no1_OFF	21	n/a	n/a	8
90.862	n/a	45431	dot_no6_ON	16	n/a	n/a	8
91.442	n/a	45721	dot_no6_OFF	26	n/a	n/a	8
92.762	n/a	46381	dot_no4_ON	14	n/a	n/a	8
93.342	n/a	46671	dot_no4_OFF	24	n/a	n/a	8
94.662	n/a	47331	dot_no2_ON	12	n/a	n/a	8
95.242	n/a	47621	dot_no2_OFF	22	n/a	n/a	8
96.562	n/a	48281	dot_no7_ON	17	n/a	n/a	8
97.142	n/a	48571	dot_no7_OFF	27	n/a	n/a	8
98.462	n/a	49231	dot_no3_ON	13	n/a	n/a	8
99.042	n/a	49521	dot_no3_OFF	23	n/a	n/a	8
100.362	n/a	50181	dot_no8_ON	18	n/a	n/a	8
100.942	n/a	50471	dot_no8_OFF	28	n/a	n/a	8
102.262	n/a	51131	dot_no5_ON	15	n/a	n/a	8
102.842	n/a	51421	dot_no5_OFF	25	n/a	n/a	8
104.162	n/a	52081	dot_no2_ON	12	n/a	n/a	8
104.742	n/a	52371	dot_no2_OFF	22	n/a	n/a	8
106.062	n/a	53031	dot_no7_ON	17	n/a	n/a	8
106.642	n/a	53321	dot_no7_OFF	27	1-6-4-2-7-3-8-5-2-7	1-6-4-2-7-3-8-5-2-7	8
138.392	n/a	69196	learningBlock_3	33	n/a	n/a	8
138.4	n/a	69200	dot_no1_ON	11	n/a	n/a	8
138.98	n/a	69490	dot_no1_OFF	21	n/a	n/a	8
140.3	n/a	70150	dot_no6_ON	16	n/a	n/a	8
140.91	n/a	70455	dot_no6_OFF	26	n/a	n/a	8
142.232	n/a	71116	dot_no4_ON	14	n/a	n/a	8
142.81	n/a	71405	dot_no4_OFF	24	n/a	n/a	8
144.13	n/a	72065	dot_no2_ON	12	n/a	n/a	8
144.71	n/a	72355	dot_no2_OFF	22	n/a	n/a	8
146.03	n/a	73015	dot_no7_ON	17	n/a	n/a	8
146.61	n/a	73305	dot_no7_OFF	27	n/a	n/a	8
147.93	n/a	73965	dot_no3_ON	13	n/a	n/a	8
148.51	n/a	74255	dot_no3_OFF	23	n/a	n/a	8
149.832	n/a	74916	dot_no8_ON	18	n/a	n/a	8
150.41	n/a	75205	dot_no8_OFF	28	n/a	n/a	8
151.73	n/a	75865	dot_no5_ON	15	n/a	n/a	8
152.31	n/a	76155	dot_no5_OFF	25	n/a	n/a	8
153.63	n/a	76815	dot_no2_ON	12	n/a	n/a	8
154.21	n/a	77105	dot_no2_OFF	22	n/a	n/a	8
155.53	n/a	77765	dot_no7_ON	17	n/a	n/a	8
156.11	n/a	78055	dot_no7_OFF	27	1-6-4-2-7-3-8-5-2-7	1-6-4-2-7-3-8-5-2-7	8
186.872	n/a	93436	learningBlock_4	34	n/a	n/a	8
186.88	n/a	93440	dot_no1_ON	11	n/a	n/a	8
187.46	n/a	93730	dot_no1_OFF	21	n/a	n/a	8
188.78	n/a	94390	dot_no6_ON	16	n/a	n/a	8
189.36	n/a	94680	dot_no6_OFF	26	n/a	n/a	8
190.68	n/a	95340	dot_no4_ON	14	n/a	n/a	8
191.26	n/a	95630	dot_no4_OFF	24	n/a	n/a	8
192.58	n/a	96290	dot_no2_ON	12	n/a	n/a	8
193.17	n/a	96585	dot_no2_OFF	22	n/a	n/a	8
194.49	n/a	97245	dot_no7_ON	17	n/a	n/a	8
195.08	n/a	97540	dot_no7_OFF	27	n/a	n/a	8
196.4	n/a	98200	dot_no3_ON	13	n/a	n/a	8
196.99	n/a	98495	dot_no3_OFF	23	n/a	n/a	8
198.31	n/a	99155	dot_no8_ON	18	n/a	n/a	8
198.89	n/a	99445	dot_no8_OFF	28	n/a	n/a	8
200.21	n/a	100105	dot_no5_ON	15	n/a	n/a	8
200.8	n/a	100400	dot_no5_OFF	25	n/a	n/a	8
202.12	n/a	101060	dot_no2_ON	12	n/a	n/a	8
202.7	n/a	101350	dot_no2_OFF	22	n/a	n/a	8
204.02	n/a	102010	dot_no7_ON	17	n/a	n/a	8
204.6	n/a	102300	dot_no7_OFF	27	1-6-4-2-7-3-8-5-2-7	1-6-4-2-7-3-8-5-2-7	8
228.442	n/a	114221	learningBlock_5	35	n/a	n/a	8
228.448	n/a	114224	dot_no1_ON	11	n/a	n/a	8
229.028	n/a	114514	dot_no1_OFF	21	n/a	n/a	8
230.348	n/a	115174	dot_no6_ON	16	n/a	n/a	8
230.928	n/a	115464	dot_no6_OFF	26	n/a	n/a	8
232.248	n/a	116124	dot_no4_ON	14	n/a	n/a	8
232.828	n/a	116414	dot_no4_OFF	24	n/a	n/a	8
234.148	n/a	117074	dot_no2_ON	12	n/a	n/a	8
234.728	n/a	117364	dot_no2_OFF	22	n/a	n/a	8
236.048	n/a	118024	dot_no7_ON	17	n/a	n/a	8
236.628	n/a	118314	dot_no7_OFF	27	n/a	n/a	8
237.948	n/a	118974	dot_no3_ON	13	n/a	n/a	8
238.53	n/a	119265	dot_no3_OFF	23	n/a	n/a	8
239.848	n/a	119924	dot_no8_ON	18	n/a	n/a	8
240.428	n/a	120214	dot_no8_OFF	28	n/a	n/a	8
241.748	n/a	120874	dot_no5_ON	15	n/a	n/a	8
242.328	n/a	121164	dot_no5_OFF	25	n/a	n/a	8
243.648	n/a	121824	dot_no2_ON	12	n/a	n/a	8
244.228	n/a	122114	dot_no2_OFF	22	n/a	n/a	8
245.548	n/a	122774	dot_no7_ON	17	n/a	n/a	8
246.138	n/a	123069	dot_no7_OFF	27	8-8-1-6-4-2-7-3-8-5	1-6-4-2-7-3-8-5-2-7	8
269.47	n/a	134735	seqLearning_stop	50	n/a	n/a	8
274.979	n/a	137489.5	boundary	boundary	n/a	n/a	8
