onset	duration	sample	value	event_code	user_answer	correct_answer	target_count
0	n/a	0	break cnt	break cnt	n/a	n/a	6
31.052	n/a	15526	seqLearning_start	91	n/a	n/a	6
37.344	n/a	18672	learningBlock_1	31	n/a	n/a	6
37.362	n/a	18681	dot_no1_ON	11	n/a	n/a	6
37.952	n/a	18976	dot_no1_OFF	21	n/a	n/a	6
39.27	n/a	19635	dot_no6_ON	16	n/a	n/a	6
39.85	n/a	19925	dot_no6_OFF	26	n/a	n/a	6
41.17	n/a	20585	dot_no4_ON	14	n/a	n/a	6
41.75	n/a	20875	dot_no4_OFF	24	n/a	n/a	6
43.07	n/a	21535	dot_no2_ON	12	n/a	n/a	6
43.65	n/a	21825	dot_no2_OFF	22	n/a	n/a	6
44.97	n/a	22485	dot_no3_ON	13	n/a	n/a	6
45.55	n/a	22775	dot_no3_OFF	23	n/a	n/a	6
46.87	n/a	23435	dot_no5_ON	15	n/a	n/a	6
47.46	n/a	23730	dot_no5_OFF	25	n/a	n/a	6
48.78	n/a	24390	dot_no2_ON	12	n/a	n/a	6
49.36	n/a	24680	dot_no2_OFF	22	6-1-4-3-3-2-5	1-6-4-2-3-5-2	6
95.802	n/a	47901	learningBlock_2	32	n/a	n/a	6
95.81	n/a	47905	dot_no1_ON	11	n/a	n/a	6
96.39	n/a	48195	dot_no1_OFF	21	n/a	n/a	6
97.71	n/a	48855	dot_no6_ON	16	n/a	n/a	6
98.29	n/a	49145	dot_no6_OFF	26	n/a	n/a	6
99.61	n/a	49805	dot_no4_ON	14	n/a	n/a	6
100.19	n/a	50095	dot_no4_OFF	24	n/a	n/a	6
101.51	n/a	50755	dot_no2_ON	12	n/a	n/a	6
102.09	n/a	51045	dot_no2_OFF	22	n/a	n/a	6
103.41	n/a	51705	dot_no3_ON	13	n/a	n/a	6
103.99	n/a	51995	dot_no3_OFF	23	n/a	n/a	6
105.31	n/a	52655	dot_no5_ON	15	n/a	n/a	6
105.89	n/a	52945	dot_no5_OFF	25	n/a	n/a	6
107.21	n/a	53605	dot_no2_ON	12	n/a	n/a	6
107.79	n/a	53895	dot_no2_OFF	22	6-1-4-3-5-2-4	1-6-4-2-3-5-2	6
135.03	n/a	67515	learningBlock_3	33	n/a	n/a	6
135.038	n/a	67519	dot_no1_ON	11	n/a	n/a	6
135.618	n/a	67809	dot_no1_OFF	21	n/a	n/a	6
136.938	n/a	68469	dot_no6_ON	16	n/a	n/a	6
137.518	n/a	68759	dot_no6_OFF	26	n/a	n/a	6
138.838	n/a	69419	dot_no4_ON	14	n/a	n/a	6
139.418	n/a	69709	dot_no4_OFF	24	n/a	n/a	6
140.738	n/a	70369	dot_no2_ON	12	n/a	n/a	6
141.318	n/a	70659	dot_no2_OFF	22	n/a	n/a	6
142.64	n/a	71320	dot_no3_ON	13	n/a	n/a	6
143.218	n/a	71609	dot_no3_OFF	23	n/a	n/a	6
144.538	n/a	72269	dot_no5_ON	15	n/a	n/a	6
145.118	n/a	72559	dot_no5_OFF	25	n/a	n/a	6
146.438	n/a	73219	dot_no2_ON	12	n/a	n/a	6
147.018	n/a	73509	dot_no2_OFF	22	6-1-4-5-3-2-5	1-6-4-2-3-5-2	6
169.79	n/a	84895	learningBlock_4	34	n/a	n/a	6
169.798	n/a	84899	dot_no1_ON	11	n/a	n/a	6
170.378	n/a	85189	dot_no1_OFF	21	n/a	n/a	6
171.698	n/a	85849	dot_no6_ON	16	n/a	n/a	6
172.278	n/a	86139	dot_no6_OFF	26	n/a	n/a	6
173.598	n/a	86799	dot_no4_ON	14	n/a	n/a	6
174.178	n/a	87089	dot_no4_OFF	24	n/a	n/a	6
175.498	n/a	87749	dot_no2_ON	12	n/a	n/a	6
176.078	n/a	88039	dot_no2_OFF	22	n/a	n/a	6
177.398	n/a	88699	dot_no3_ON	13	n/a	n/a	6
177.978	n/a	88989	dot_no3_OFF	23	n/a	n/a	6
179.298	n/a	89649	dot_no5_ON	15	n/a	n/a	6
179.878	n/a	89939	dot_no5_OFF	25	n/a	n/a	6
181.198	n/a	90599	dot_no2_ON	12	n/a	n/a	6
181.778	n/a	90889	dot_no2_OFF	22	6-1-4-5-3-6-2	1-6-4-2-3-5-2	6
215.52	n/a	107760	learningBlock_5	35	n/a	n/a	6
215.528	n/a	107764	dot_no1_ON	11	n/a	n/a	6
216.108	n/a	108054	dot_no1_OFF	21	n/a	n/a	6
217.428	n/a	108714	dot_no6_ON	16	n/a	n/a	6
218.008	n/a	109004	dot_no6_OFF	26	n/a	n/a	6
219.328	n/a	109664	dot_no4_ON	14	n/a	n/a	6
219.908	n/a	109954	dot_no4_OFF	24	n/a	n/a	6
221.228	n/a	110614	dot_no2_ON	12	n/a	n/a	6
221.808	n/a	110904	dot_no2_OFF	22	n/a	n/a	6
223.128	n/a	111564	dot_no3_ON	13	n/a	n/a	6
223.708	n/a	111854	dot_no3_OFF	23	n/a	n/a	6
225.028	n/a	112514	dot_no5_ON	15	n/a	n/a	6
225.608	n/a	112804	dot_no5_OFF	25	n/a	n/a	6
226.928	n/a	113464	dot_no2_ON	12	n/a	n/a	6
227.508	n/a	113754	dot_no2_OFF	22	6-1-5-2-4-3-1	1-6-4-2-3-5-2	6
255.91	n/a	127955	seqLearning_stop	50	n/a	n/a	6
260.877	n/a	130438.5	boundary	boundary	n/a	n/a	6
