onset	duration	sample	value	event_code	user_answer	correct_answer	target_count
0	n/a	0	break cnt	break cnt	n/a	n/a	8
73.588	n/a	36794	seqLearning_start	91	n/a	n/a	8
81.892	n/a	40946	learningBlock_1	31	n/a	n/a	8
81.932	n/a	40966	dot_no1_ON	11	n/a	n/a	8
82.49	n/a	41245	dot_no1_OFF	21	n/a	n/a	8
83.804	n/a	41902	dot_no6_ON	16	n/a	n/a	8
84.354	n/a	42177	dot_no6_OFF	26	n/a	n/a	8
85.668	n/a	42834	dot_no4_ON	14	n/a	n/a	8
86.218	n/a	43109	dot_no4_OFF	24	n/a	n/a	8
87.532	n/a	43766	dot_no2_ON	12	n/a	n/a	8
88.082	n/a	44041	dot_no2_OFF	22	n/a	n/a	8
89.396	n/a	44698	dot_no7_ON	17	n/a	n/a	8
89.948	n/a	44974	dot_no7_OFF	27	n/a	n/a	8
91.262	n/a	45631	dot_no3_ON	13	n/a	n/a	8
91.814	n/a	45907	dot_no3_OFF	23	n/a	n/a	8
93.128	n/a	46564	dot_no8_ON	18	n/a	n/a	8
93.68	n/a	46840	dot_no8_OFF	28	n/a	n/a	8
94.994	n/a	47497	dot_no5_ON	15	n/a	n/a	8
95.544	n/a	47772	dot_no5_OFF	25	n/a	n/a	8
96.858	n/a	48429	dot_no2_ON	12	n/a	n/a	8
97.41	n/a	48705	dot_no2_OFF	22	n/a	n/a	8
98.722	n/a	49361	dot_no7_ON	17	n/a	n/a	8
99.276	n/a	49638	dot_no7_OFF	27	1-6-5-3-7-2-4-8-8-8	1-6-4-2-7-3-8-5-2-7	8
128.2	n/a	64100	learningBlock_2	32	n/a	n/a	8
128.208	n/a	64104	dot_no1_ON	11	n/a	n/a	8
128.758	n/a	64379	dot_no1_OFF	21	n/a	n/a	8
130.072	n/a	65036	dot_no6_ON	16	n/a	n/a	8
130.624	n/a	65312	dot_no6_OFF	26	n/a	n/a	8
131.938	n/a	65969	dot_no4_ON	14	n/a	n/a	8
132.49	n/a	66245	dot_no4_OFF	24	n/a	n/a	8
133.804	n/a	66902	dot_no2_ON	12	n/a	n/a	8
134.356	n/a	67178	dot_no2_OFF	22	n/a	n/a	8
135.67	n/a	67835	dot_no7_ON	17	n/a	n/a	8
136.228	n/a	68114	dot_no7_OFF	27	n/a	n/a	8
137.542	n/a	68771	dot_no3_ON	13	n/a	n/a	8
138.092	n/a	69046	dot_no3_OFF	23	n/a	n/a	8
139.406	n/a	69703	dot_no8_ON	18	n/a	n/a	8
139.958	n/a	69979	dot_no8_OFF	28	n/a	n/a	8
141.272	n/a	70636	dot_no5_ON	15	n/a	n/a	8
141.822	n/a	70911	dot_no5_OFF	25	n/a	n/a	8
143.136	n/a	71568	dot_no2_ON	12	n/a	n/a	8
143.686	n/a	71843	dot_no2_OFF	22	n/a	n/a	8
145	n/a	72500	dot_no7_ON	17	n/a	n/a	8
145.554	n/a	72777	dot_no7_OFF	27	1-7-5-6-2-4-3-8-8-5	1-6-4-2-7-3-8-5-2-7	8
181.726	n/a	90863	learningBlock_3	33	n/a	n/a	8
181.734	n/a	90867	dot_no1_ON	11	n/a	n/a	8
182.284	n/a	91142	dot_no1_OFF	21	n/a	n/a	8
183.598	n/a	91799	dot_no6_ON	16	n/a	n/a	8
184.146	n/a	92073	dot_no6_OFF	26	n/a	n/a	8
185.46	n/a	92730	dot_no4_ON	14	n/a	n/a	8
186.012	n/a	93006	dot_no4_OFF	24	n/a	n/a	8
187.326	n/a	93663	dot_no2_ON	12	n/a	n/a	8
187.878	n/a	93939	dot_no2_OFF	22	n/a	n/a	8
189.192	n/a	94596	dot_no7_ON	17	n/a	n/a	8
189.742	n/a	94871	dot_no7_OFF	27	n/a	n/a	8
191.056	n/a	95528	dot_no3_ON	13	n/a	n/a	8
191.612	n/a	95806	dot_no3_OFF	23	n/a	n/a	8
192.924	n/a	96462	dot_no8_ON	18	n/a	n/a	8
193.474	n/a	96737	dot_no8_OFF	28	n/a	n/a	8
194.788	n/a	97394	dot_no5_ON	15	n/a	n/a	8
195.34	n/a	97670	dot_no5_OFF	25	n/a	n/a	8
196.654	n/a	98327	dot_no2_ON	12	n/a	n/a	8
197.204	n/a	98602	dot_no2_OFF	22	n/a	n/a	8
198.518	n/a	99259	dot_no7_ON	17	n/a	n/a	8
199.07	n/a	99535	dot_no7_OFF	27	1-7-3-6-2-5-4-1-1-7	1-6-4-2-7-3-8-5-2-7	8
228.302	n/a	114151	learningBlock_4	34	n/a	n/a	8
228.31	n/a	114155	dot_no1_ON	11	n/a	n/a	8
228.86	n/a	114430	dot_no1_OFF	21	n/a	n/a	8
230.172	n/a	115086	dot_no6_ON	16	n/a	n/a	8
230.726	n/a	115363	dot_no6_OFF	26	n/a	n/a	8
232.04	n/a	116020	dot_no4_ON	14	n/a	n/a	8
232.592	n/a	116296	dot_no4_OFF	24	n/a	n/a	8
233.906	n/a	116953	dot_no2_ON	12	n/a	n/a	8
234.456	n/a	117228	dot_no2_OFF	22	n/a	n/a	8
235.77	n/a	117885	dot_no7_ON	17	n/a	n/a	8
236.322	n/a	118161	dot_no7_OFF	27	n/a	n/a	8
237.634	n/a	118817	dot_no3_ON	13	n/a	n/a	8
238.184	n/a	119092	dot_no3_OFF	23	n/a	n/a	8
239.496	n/a	119748	dot_no8_ON	18	n/a	n/a	8
240.05	n/a	120025	dot_no8_OFF	28	n/a	n/a	8
241.362	n/a	120681	dot_no5_ON	15	n/a	n/a	8
241.914	n/a	120957	dot_no5_OFF	25	n/a	n/a	8
243.228	n/a	121614	dot_no2_ON	12	n/a	n/a	8
243.78	n/a	121890	dot_no2_OFF	22	n/a	n/a	8
245.094	n/a	122547	dot_no7_ON	17	n/a	n/a	8
245.644	n/a	122822	dot_no7_OFF	27	1-6-2-3-7-5-7-4-1-8	1-6-4-2-7-3-8-5-2-7	8
273.148	n/a	136574	learningBlock_5	35	n/a	n/a	8
273.156	n/a	136578	dot_no1_ON	11	n/a	n/a	8
273.708	n/a	136854	dot_no1_OFF	21	n/a	n/a	8
275.022	n/a	137511	dot_no6_ON	16	n/a	n/a	8
275.576	n/a	137788	dot_no6_OFF	26	n/a	n/a	8
276.888	n/a	138444	dot_no4_ON	14	n/a	n/a	8
277.44	n/a	138720	dot_no4_OFF	24	n/a	n/a	8
278.754	n/a	139377	dot_no2_ON	12	n/a	n/a	8
279.304	n/a	139652	dot_no2_OFF	22	n/a	n/a	8
280.618	n/a	140309	dot_no7_ON	17	n/a	n/a	8
281.168	n/a	140584	dot_no7_OFF	27	n/a	n/a	8
282.482	n/a	141241	dot_no3_ON	13	n/a	n/a	8
283.032	n/a	141516	dot_no3_OFF	23	n/a	n/a	8
284.344	n/a	142172	dot_no8_ON	18	n/a	n/a	8
284.9	n/a	142450	dot_no8_OFF	28	n/a	n/a	8
286.214	n/a	143107	dot_no5_ON	15	n/a	n/a	8
286.768	n/a	143384	dot_no5_OFF	25	n/a	n/a	8
288.082	n/a	144041	dot_no2_ON	12	n/a	n/a	8
288.632	n/a	144316	dot_no2_OFF	22	n/a	n/a	8
289.946	n/a	144973	dot_no7_ON	17	n/a	n/a	8
290.498	n/a	145249	dot_no7_OFF	27	1-6-2-7-3-4-8-5-6-7	1-6-4-2-7-3-8-5-2-7	8
322.426	n/a	161213	seqLearning_stop	50	n/a	n/a	8
325.603	n/a	162801.5	boundary	boundary	n/a	n/a	8
