onset	duration	sample	value	event_code	user_answer	correct_answer	target_count
0	n/a	0	break cnt	break cnt	n/a	n/a	8
28.7	n/a	14350	seqLearning_start	91	n/a	n/a	8
36.012	n/a	18006	learningBlock_1	31	n/a	n/a	8
36.028	n/a	18014	dot_no1_ON	11	n/a	n/a	8
36.584	n/a	18292	dot_no1_OFF	21	n/a	n/a	8
37.898	n/a	18949	dot_no6_ON	16	n/a	n/a	8
38.45	n/a	19225	dot_no6_OFF	26	n/a	n/a	8
39.764	n/a	19882	dot_no4_ON	14	n/a	n/a	8
40.316	n/a	20158	dot_no4_OFF	24	n/a	n/a	8
41.63	n/a	20815	dot_no2_ON	12	n/a	n/a	8
42.18	n/a	21090	dot_no2_OFF	22	n/a	n/a	8
43.494	n/a	21747	dot_no7_ON	17	n/a	n/a	8
44.046	n/a	22023	dot_no7_OFF	27	n/a	n/a	8
45.36	n/a	22680	dot_no3_ON	13	n/a	n/a	8
45.912	n/a	22956	dot_no3_OFF	23	n/a	n/a	8
47.226	n/a	23613	dot_no8_ON	18	n/a	n/a	8
47.776	n/a	23888	dot_no8_OFF	28	n/a	n/a	8
49.09	n/a	24545	dot_no5_ON	15	n/a	n/a	8
49.642	n/a	24821	dot_no5_OFF	25	n/a	n/a	8
50.954	n/a	25477	dot_no2_ON	12	n/a	n/a	8
51.508	n/a	25754	dot_no2_OFF	22	n/a	n/a	8
52.822	n/a	26411	dot_no7_ON	17	n/a	n/a	8
53.372	n/a	26686	dot_no7_OFF	27	1-5-8-6-2-7-5-3-7-8	1-6-4-2-7-3-8-5-2-7	8
99.91	n/a	49955	learningBlock_2	32	n/a	n/a	8
99.916	n/a	49958	dot_no1_ON	11	n/a	n/a	8
100.47	n/a	50235	dot_no1_OFF	21	n/a	n/a	8
101.782	n/a	50891	dot_no6_ON	16	n/a	n/a	8
102.336	n/a	51168	dot_no6_OFF	26	n/a	n/a	8
103.65	n/a	51825	dot_no4_ON	14	n/a	n/a	8
104.202	n/a	52101	dot_no4_OFF	24	n/a	n/a	8
105.516	n/a	52758	dot_no2_ON	12	n/a	n/a	8
106.07	n/a	53035	dot_no2_OFF	22	n/a	n/a	8
107.384	n/a	53692	dot_no7_ON	17	n/a	n/a	8
107.938	n/a	53969	dot_no7_OFF	27	n/a	n/a	8
109.252	n/a	54626	dot_no3_ON	13	n/a	n/a	8
109.802	n/a	54901	dot_no3_OFF	23	n/a	n/a	8
111.116	n/a	55558	dot_no8_ON	18	n/a	n/a	8
111.666	n/a	55833	dot_no8_OFF	28	n/a	n/a	8
112.98	n/a	56490	dot_no5_ON	15	n/a	n/a	8
113.532	n/a	56766	dot_no5_OFF	25	n/a	n/a	8
114.846	n/a	57423	dot_no2_ON	12	n/a	n/a	8
115.4	n/a	57700	dot_no2_OFF	22	n/a	n/a	8
116.714	n/a	58357	dot_no7_ON	17	n/a	n/a	8
117.264	n/a	58632	dot_no7_OFF	27	2-5-1-6-8-3-7-4-8-5	1-6-4-2-7-3-8-5-2-7	8
148.594	n/a	74297	learningBlock_3	33	n/a	n/a	8
148.602	n/a	74301	dot_no1_ON	11	n/a	n/a	8
149.154	n/a	74577	dot_no1_OFF	21	n/a	n/a	8
150.468	n/a	75234	dot_no6_ON	16	n/a	n/a	8
151.02	n/a	75510	dot_no6_OFF	26	n/a	n/a	8
152.332	n/a	76166	dot_no4_ON	14	n/a	n/a	8
152.882	n/a	76441	dot_no4_OFF	24	n/a	n/a	8
154.196	n/a	77098	dot_no2_ON	12	n/a	n/a	8
154.748	n/a	77374	dot_no2_OFF	22	n/a	n/a	8
156.06	n/a	78030	dot_no7_ON	17	n/a	n/a	8
156.612	n/a	78306	dot_no7_OFF	27	n/a	n/a	8
157.926	n/a	78963	dot_no3_ON	13	n/a	n/a	8
158.48	n/a	79240	dot_no3_OFF	23	n/a	n/a	8
159.792	n/a	79896	dot_no8_ON	18	n/a	n/a	8
160.354	n/a	80177	dot_no8_OFF	28	n/a	n/a	8
161.666	n/a	80833	dot_no5_ON	15	n/a	n/a	8
162.216	n/a	81108	dot_no5_OFF	25	n/a	n/a	8
163.53	n/a	81765	dot_no2_ON	12	n/a	n/a	8
164.084	n/a	82042	dot_no2_OFF	22	n/a	n/a	8
165.398	n/a	82699	dot_no7_ON	17	n/a	n/a	8
165.95	n/a	82975	dot_no7_OFF	27	1-6-2-5-8-3-7-4-5-8	1-6-4-2-7-3-8-5-2-7	8
188.076	n/a	94038	learningBlock_4	34	n/a	n/a	8
188.082	n/a	94041	dot_no1_ON	11	n/a	n/a	8
188.634	n/a	94317	dot_no1_OFF	21	n/a	n/a	8
189.948	n/a	94974	dot_no6_ON	16	n/a	n/a	8
190.5	n/a	95250	dot_no6_OFF	26	n/a	n/a	8
191.814	n/a	95907	dot_no4_ON	14	n/a	n/a	8
192.364	n/a	96182	dot_no4_OFF	24	n/a	n/a	8
193.676	n/a	96838	dot_no2_ON	12	n/a	n/a	8
194.228	n/a	97114	dot_no2_OFF	22	n/a	n/a	8
195.542	n/a	97771	dot_no7_ON	17	n/a	n/a	8
196.094	n/a	98047	dot_no7_OFF	27	n/a	n/a	8
197.408	n/a	98704	dot_no3_ON	13	n/a	n/a	8
197.958	n/a	98979	dot_no3_OFF	23	n/a	n/a	8
199.27	n/a	99635	dot_no8_ON	18	n/a	n/a	8
199.824	n/a	99912	dot_no8_OFF	28	n/a	n/a	8
201.138	n/a	100569	dot_no5_ON	15	n/a	n/a	8
201.692	n/a	100846	dot_no5_OFF	25	n/a	n/a	8
203.004	n/a	101502	dot_no2_ON	12	n/a	n/a	8
203.558	n/a	101779	dot_no2_OFF	22	n/a	n/a	8
204.872	n/a	102436	dot_no7_ON	17	n/a	n/a	8
205.424	n/a	102712	dot_no7_OFF	27	1-6-2-4-8-3-7-5-2-4	1-6-4-2-7-3-8-5-2-7	8
229.436	n/a	114718	learningBlock_5	35	n/a	n/a	8
229.444	n/a	114722	dot_no1_ON	11	n/a	n/a	8
229.994	n/a	114997	dot_no1_OFF	21	n/a	n/a	8
231.308	n/a	115654	dot_no6_ON	16	n/a	n/a	8
231.86	n/a	115930	dot_no6_OFF	26	n/a	n/a	8
233.174	n/a	116587	dot_no4_ON	14	n/a	n/a	8
233.728	n/a	116864	dot_no4_OFF	24	n/a	n/a	8
235.042	n/a	117521	dot_no2_ON	12	n/a	n/a	8
235.592	n/a	117796	dot_no2_OFF	22	n/a	n/a	8
236.906	n/a	118453	dot_no7_ON	17	n/a	n/a	8
237.46	n/a	118730	dot_no7_OFF	27	n/a	n/a	8
238.774	n/a	119387	dot_no3_ON	13	n/a	n/a	8
239.326	n/a	119663	dot_no3_OFF	23	n/a	n/a	8
240.64	n/a	120320	dot_no8_ON	18	n/a	n/a	8
241.194	n/a	120597	dot_no8_OFF	28	n/a	n/a	8
242.506	n/a	121253	dot_no5_ON	15	n/a	n/a	8
243.056	n/a	121528	dot_no5_OFF	25	n/a	n/a	8
244.37	n/a	122185	dot_no2_ON	12	n/a	n/a	8
244.92	n/a	122460	dot_no2_OFF	22	n/a	n/a	8
246.234	n/a	123117	dot_no7_ON	17	n/a	n/a	8
246.784	n/a	123392	dot_no7_OFF	27	1-6-7-3-4-8-5-2-1-5	1-6-4-2-7-3-8-5-2-7	8
269.23	n/a	134615	seqLearning_stop	50	n/a	n/a	8
272.503	n/a	136251.5	boundary	boundary	n/a	n/a	8
