onset	duration	sample	value	event_code	user_answer	correct_answer	target_count
0	n/a	0	break cnt	break cnt	n/a	n/a	8
25.996	n/a	12998	seqLearning_start	91	n/a	n/a	8
32.274	n/a	16137	learningBlock_1	31	n/a	n/a	8
32.304	n/a	16152	dot_no1_ON	11	n/a	n/a	8
32.894	n/a	16447	dot_no1_OFF	21	n/a	n/a	8
34.212	n/a	17106	dot_no6_ON	16	n/a	n/a	8
34.792	n/a	17396	dot_no6_OFF	26	n/a	n/a	8
36.112	n/a	18056	dot_no4_ON	14	n/a	n/a	8
36.692	n/a	18346	dot_no4_OFF	24	n/a	n/a	8
38.014	n/a	19007	dot_no2_ON	12	n/a	n/a	8
38.594	n/a	19297	dot_no2_OFF	22	n/a	n/a	8
39.914	n/a	19957	dot_no7_ON	17	n/a	n/a	8
40.494	n/a	20247	dot_no7_OFF	27	n/a	n/a	8
41.814	n/a	20907	dot_no3_ON	13	n/a	n/a	8
42.394	n/a	21197	dot_no3_OFF	23	n/a	n/a	8
43.714	n/a	21857	dot_no8_ON	18	n/a	n/a	8
44.294	n/a	22147	dot_no8_OFF	28	n/a	n/a	8
45.614	n/a	22807	dot_no5_ON	15	n/a	n/a	8
46.194	n/a	23097	dot_no5_OFF	25	n/a	n/a	8
47.514	n/a	23757	dot_no2_ON	12	n/a	n/a	8
48.094	n/a	24047	dot_no2_OFF	22	n/a	n/a	8
49.414	n/a	24707	dot_no7_ON	17	n/a	n/a	8
49.994	n/a	24997	dot_no7_OFF	27	1-7-4-2-6-3-8-5-1-1	1-6-4-2-7-3-8-5-2-7	8
107.208	n/a	53604	learningBlock_2	32	n/a	n/a	8
107.214	n/a	53607	dot_no1_ON	11	n/a	n/a	8
107.794	n/a	53897	dot_no1_OFF	21	n/a	n/a	8
109.114	n/a	54557	dot_no6_ON	16	n/a	n/a	8
109.694	n/a	54847	dot_no6_OFF	26	n/a	n/a	8
111.014	n/a	55507	dot_no4_ON	14	n/a	n/a	8
111.594	n/a	55797	dot_no4_OFF	24	n/a	n/a	8
112.914	n/a	56457	dot_no2_ON	12	n/a	n/a	8
113.504	n/a	56752	dot_no2_OFF	22	n/a	n/a	8
114.824	n/a	57412	dot_no7_ON	17	n/a	n/a	8
115.406	n/a	57703	dot_no7_OFF	27	n/a	n/a	8
116.724	n/a	58362	dot_no3_ON	13	n/a	n/a	8
117.304	n/a	58652	dot_no3_OFF	23	n/a	n/a	8
118.626	n/a	59313	dot_no8_ON	18	n/a	n/a	8
119.204	n/a	59602	dot_no8_OFF	28	n/a	n/a	8
120.524	n/a	60262	dot_no5_ON	15	n/a	n/a	8
121.104	n/a	60552	dot_no5_OFF	25	n/a	n/a	8
122.426	n/a	61213	dot_no2_ON	12	n/a	n/a	8
123.004	n/a	61502	dot_no2_OFF	22	n/a	n/a	8
124.326	n/a	62163	dot_no7_ON	17	n/a	n/a	8
124.906	n/a	62453	dot_no7_OFF	27	1-6-4-2-7-3-8-5-6-1	1-6-4-2-7-3-8-5-2-7	8
168.858	n/a	84429	learningBlock_3	33	n/a	n/a	8
168.866	n/a	84433	dot_no1_ON	11	n/a	n/a	8
169.446	n/a	84723	dot_no1_OFF	21	n/a	n/a	8
170.766	n/a	85383	dot_no6_ON	16	n/a	n/a	8
171.346	n/a	85673	dot_no6_OFF	26	n/a	n/a	8
172.666	n/a	86333	dot_no4_ON	14	n/a	n/a	8
173.246	n/a	86623	dot_no4_OFF	24	n/a	n/a	8
174.566	n/a	87283	dot_no2_ON	12	n/a	n/a	8
175.146	n/a	87573	dot_no2_OFF	22	n/a	n/a	8
176.466	n/a	88233	dot_no7_ON	17	n/a	n/a	8
177.046	n/a	88523	dot_no7_OFF	27	n/a	n/a	8
178.366	n/a	89183	dot_no3_ON	13	n/a	n/a	8
178.946	n/a	89473	dot_no3_OFF	23	n/a	n/a	8
180.266	n/a	90133	dot_no8_ON	18	n/a	n/a	8
180.846	n/a	90423	dot_no8_OFF	28	n/a	n/a	8
182.166	n/a	91083	dot_no5_ON	15	n/a	n/a	8
182.746	n/a	91373	dot_no5_OFF	25	n/a	n/a	8
184.066	n/a	92033	dot_no2_ON	12	n/a	n/a	8
184.646	n/a	92323	dot_no2_OFF	22	n/a	n/a	8
185.966	n/a	92983	dot_no7_ON	17	n/a	n/a	8
186.556	n/a	93278	dot_no7_OFF	27	1-6-4-2-7-2-5-8-3-6	1-6-4-2-7-3-8-5-2-7	8
225.708	n/a	112854	learningBlock_4	34	n/a	n/a	8
225.718	n/a	112859	dot_no1_ON	11	n/a	n/a	8
226.298	n/a	113149	dot_no1_OFF	21	n/a	n/a	8
227.618	n/a	113809	dot_no6_ON	16	n/a	n/a	8
228.198	n/a	114099	dot_no6_OFF	26	n/a	n/a	8
229.518	n/a	114759	dot_no4_ON	14	n/a	n/a	8
230.098	n/a	115049	dot_no4_OFF	24	n/a	n/a	8
231.418	n/a	115709	dot_no2_ON	12	n/a	n/a	8
231.998	n/a	115999	dot_no2_OFF	22	n/a	n/a	8
233.318	n/a	116659	dot_no7_ON	17	n/a	n/a	8
233.898	n/a	116949	dot_no7_OFF	27	n/a	n/a	8
235.218	n/a	117609	dot_no3_ON	13	n/a	n/a	8
235.798	n/a	117899	dot_no3_OFF	23	n/a	n/a	8
237.118	n/a	118559	dot_no8_ON	18	n/a	n/a	8
237.698	n/a	118849	dot_no8_OFF	28	n/a	n/a	8
239.018	n/a	119509	dot_no5_ON	15	n/a	n/a	8
239.598	n/a	119799	dot_no5_OFF	25	n/a	n/a	8
240.918	n/a	120459	dot_no2_ON	12	n/a	n/a	8
241.498	n/a	120749	dot_no2_OFF	22	n/a	n/a	8
242.818	n/a	121409	dot_no7_ON	17	n/a	n/a	8
243.398	n/a	121699	dot_no7_OFF	27	1-6-4-2-7-3-8-5-3-7	1-6-4-2-7-3-8-5-2-7	8
276.24	n/a	138120	learningBlock_5	35	n/a	n/a	8
276.248	n/a	138124	dot_no1_ON	11	n/a	n/a	8
276.828	n/a	138414	dot_no1_OFF	21	n/a	n/a	8
278.148	n/a	139074	dot_no6_ON	16	n/a	n/a	8
278.728	n/a	139364	dot_no6_OFF	26	n/a	n/a	8
280.048	n/a	140024	dot_no4_ON	14	n/a	n/a	8
280.628	n/a	140314	dot_no4_OFF	24	n/a	n/a	8
281.948	n/a	140974	dot_no2_ON	12	n/a	n/a	8
282.528	n/a	141264	dot_no2_OFF	22	n/a	n/a	8
283.848	n/a	141924	dot_no7_ON	17	n/a	n/a	8
284.428	n/a	142214	dot_no7_OFF	27	n/a	n/a	8
285.748	n/a	142874	dot_no3_ON	13	n/a	n/a	8
286.328	n/a	143164	dot_no3_OFF	23	n/a	n/a	8
287.648	n/a	143824	dot_no8_ON	18	n/a	n/a	8
288.228	n/a	144114	dot_no8_OFF	28	n/a	n/a	8
289.548	n/a	144774	dot_no5_ON	15	n/a	n/a	8
290.128	n/a	145064	dot_no5_OFF	25	n/a	n/a	8
291.45	n/a	145725	dot_no2_ON	12	n/a	n/a	8
292.028	n/a	146014	dot_no2_OFF	22	n/a	n/a	8
293.348	n/a	146674	dot_no7_ON	17	n/a	n/a	8
293.928	n/a	146964	dot_no7_OFF	27	1-6-4-2-7-3-8-3-5-1	1-6-4-2-7-3-8-5-2-7	8
332.562	n/a	166281	seqLearning_stop	50	n/a	n/a	8
338.871	n/a	169435.5	boundary	boundary	n/a	n/a	8
