onset	duration	sample	value	event_code	user_answer	correct_answer	target_count
0	n/a	0	break cnt	break cnt	n/a	n/a	8
211.754	n/a	105877	seqLearning_start	91	n/a	n/a	8
221.082	n/a	110541	learningBlock_1	31	n/a	n/a	8
221.1	n/a	110550	dot_no1_ON	11	n/a	n/a	8
221.688	n/a	110844	dot_no1_OFF	21	n/a	n/a	8
223.008	n/a	111504	dot_no6_ON	16	n/a	n/a	8
223.598	n/a	111799	dot_no6_OFF	26	n/a	n/a	8
224.918	n/a	112459	dot_no4_ON	14	n/a	n/a	8
225.508	n/a	112754	dot_no4_OFF	24	n/a	n/a	8
226.828	n/a	113414	dot_no2_ON	12	n/a	n/a	8
227.418	n/a	113709	dot_no2_OFF	22	n/a	n/a	8
228.738	n/a	114369	dot_no7_ON	17	n/a	n/a	8
229.328	n/a	114664	dot_no7_OFF	27	n/a	n/a	8
230.65	n/a	115325	dot_no3_ON	13	n/a	n/a	8
231.238	n/a	115619	dot_no3_OFF	23	n/a	n/a	8
232.558	n/a	116279	dot_no8_ON	18	n/a	n/a	8
233.148	n/a	116574	dot_no8_OFF	28	n/a	n/a	8
234.468	n/a	117234	dot_no5_ON	15	n/a	n/a	8
235.058	n/a	117529	dot_no5_OFF	25	n/a	n/a	8
236.378	n/a	118189	dot_no2_ON	12	n/a	n/a	8
236.968	n/a	118484	dot_no2_OFF	22	n/a	n/a	8
238.29	n/a	119145	dot_no7_ON	17	n/a	n/a	8
238.878	n/a	119439	dot_no7_OFF	27	1-6-2-8-4-7-3-5-7-7	1-6-4-2-7-3-8-5-2-7	8
265.618	n/a	132809	learningBlock_2	32	n/a	n/a	8
265.628	n/a	132814	dot_no1_ON	11	n/a	n/a	8
266.218	n/a	133109	dot_no1_OFF	21	n/a	n/a	8
267.54	n/a	133770	dot_no6_ON	16	n/a	n/a	8
268.128	n/a	134064	dot_no6_OFF	26	n/a	n/a	8
269.45	n/a	134725	dot_no4_ON	14	n/a	n/a	8
270.038	n/a	135019	dot_no4_OFF	24	n/a	n/a	8
271.36	n/a	135680	dot_no2_ON	12	n/a	n/a	8
271.948	n/a	135974	dot_no2_OFF	22	n/a	n/a	8
273.27	n/a	136635	dot_no7_ON	17	n/a	n/a	8
273.858	n/a	136929	dot_no7_OFF	27	n/a	n/a	8
275.18	n/a	137590	dot_no3_ON	13	n/a	n/a	8
275.768	n/a	137884	dot_no3_OFF	23	n/a	n/a	8
277.09	n/a	138545	dot_no8_ON	18	n/a	n/a	8
277.678	n/a	138839	dot_no8_OFF	28	n/a	n/a	8
279	n/a	139500	dot_no5_ON	15	n/a	n/a	8
279.588	n/a	139794	dot_no5_OFF	25	n/a	n/a	8
280.91	n/a	140455	dot_no2_ON	12	n/a	n/a	8
281.498	n/a	140749	dot_no2_OFF	22	n/a	n/a	8
282.82	n/a	141410	dot_no7_ON	17	n/a	n/a	8
283.408	n/a	141704	dot_no7_OFF	27	1-6-2-8-4-7-3-5-7-3	1-6-4-2-7-3-8-5-2-7	8
305.288	n/a	152644	learningBlock_3	33	n/a	n/a	8
305.3	n/a	152650	dot_no1_ON	11	n/a	n/a	8
305.888	n/a	152944	dot_no1_OFF	21	n/a	n/a	8
307.21	n/a	153605	dot_no6_ON	16	n/a	n/a	8
307.798	n/a	153899	dot_no6_OFF	26	n/a	n/a	8
309.12	n/a	154560	dot_no4_ON	14	n/a	n/a	8
309.708	n/a	154854	dot_no4_OFF	24	n/a	n/a	8
311.03	n/a	155515	dot_no2_ON	12	n/a	n/a	8
311.618	n/a	155809	dot_no2_OFF	22	n/a	n/a	8
312.94	n/a	156470	dot_no7_ON	17	n/a	n/a	8
313.528	n/a	156764	dot_no7_OFF	27	n/a	n/a	8
314.85	n/a	157425	dot_no3_ON	13	n/a	n/a	8
315.438	n/a	157719	dot_no3_OFF	23	n/a	n/a	8
316.76	n/a	158380	dot_no8_ON	18	n/a	n/a	8
317.348	n/a	158674	dot_no8_OFF	28	n/a	n/a	8
318.67	n/a	159335	dot_no5_ON	15	n/a	n/a	8
319.258	n/a	159629	dot_no5_OFF	25	n/a	n/a	8
320.58	n/a	160290	dot_no2_ON	12	n/a	n/a	8
321.168	n/a	160584	dot_no2_OFF	22	n/a	n/a	8
322.49	n/a	161245	dot_no7_ON	17	n/a	n/a	8
323.078	n/a	161539	dot_no7_OFF	27	1-6-2-8-4-5-7-2-3-7	1-6-4-2-7-3-8-5-2-7	8
352.898	n/a	176449	learningBlock_4	34	n/a	n/a	8
352.91	n/a	176455	dot_no1_ON	11	n/a	n/a	8
353.5	n/a	176750	dot_no1_OFF	21	n/a	n/a	8
354.82	n/a	177410	dot_no6_ON	16	n/a	n/a	8
355.408	n/a	177704	dot_no6_OFF	26	n/a	n/a	8
356.73	n/a	178365	dot_no4_ON	14	n/a	n/a	8
357.318	n/a	178659	dot_no4_OFF	24	n/a	n/a	8
358.64	n/a	179320	dot_no2_ON	12	n/a	n/a	8
359.23	n/a	179615	dot_no2_OFF	22	n/a	n/a	8
360.55	n/a	180275	dot_no7_ON	17	n/a	n/a	8
361.138	n/a	180569	dot_no7_OFF	27	n/a	n/a	8
362.46	n/a	181230	dot_no3_ON	13	n/a	n/a	8
363.048	n/a	181524	dot_no3_OFF	23	n/a	n/a	8
364.37	n/a	182185	dot_no8_ON	18	n/a	n/a	8
364.958	n/a	182479	dot_no8_OFF	28	n/a	n/a	8
366.28	n/a	183140	dot_no5_ON	15	n/a	n/a	8
366.868	n/a	183434	dot_no5_OFF	25	n/a	n/a	8
368.19	n/a	184095	dot_no2_ON	12	n/a	n/a	8
368.778	n/a	184389	dot_no2_OFF	22	n/a	n/a	8
370.1	n/a	185050	dot_no7_ON	17	n/a	n/a	8
370.688	n/a	185344	dot_no7_OFF	27	6-4-2-7-3-5-8-4-1-3	1-6-4-2-7-3-8-5-2-7	8
389.512	n/a	194756	learningBlock_5	35	n/a	n/a	8
389.52	n/a	194760	dot_no1_ON	11	n/a	n/a	8
390.108	n/a	195054	dot_no1_OFF	21	n/a	n/a	8
391.43	n/a	195715	dot_no6_ON	16	n/a	n/a	8
392.018	n/a	196009	dot_no6_OFF	26	n/a	n/a	8
393.34	n/a	196670	dot_no4_ON	14	n/a	n/a	8
393.928	n/a	196964	dot_no4_OFF	24	n/a	n/a	8
395.25	n/a	197625	dot_no2_ON	12	n/a	n/a	8
395.838	n/a	197919	dot_no2_OFF	22	n/a	n/a	8
397.16	n/a	198580	dot_no7_ON	17	n/a	n/a	8
397.748	n/a	198874	dot_no7_OFF	27	n/a	n/a	8
399.07	n/a	199535	dot_no3_ON	13	n/a	n/a	8
399.658	n/a	199829	dot_no3_OFF	23	n/a	n/a	8
400.98	n/a	200490	dot_no8_ON	18	n/a	n/a	8
401.568	n/a	200784	dot_no8_OFF	28	n/a	n/a	8
402.89	n/a	201445	dot_no5_ON	15	n/a	n/a	8
403.478	n/a	201739	dot_no5_OFF	25	n/a	n/a	8
404.8	n/a	202400	dot_no2_ON	12	n/a	n/a	8
405.39	n/a	202695	dot_no2_OFF	22	n/a	n/a	8
406.71	n/a	203355	dot_no7_ON	17	n/a	n/a	8
407.298	n/a	203649	dot_no7_OFF	27	1-6-4-2-7-3-5-8-7-6	1-6-4-2-7-3-8-5-2-7	8
421.508	n/a	210754	seqLearning_stop	50	n/a	n/a	8
424.457	n/a	212228.5	boundary	boundary	n/a	n/a	8
