onset	duration	sample	value	event_code	user_answer	correct_answer	target_count
0	n/a	0	break cnt	break cnt	n/a	n/a	6
48.654	n/a	24327	seqLearning_start	91	n/a	n/a	6
55.95	n/a	27975	learningBlock_1	31	n/a	n/a	6
55.968	n/a	27984	dot_no1_ON	11	n/a	n/a	6
56.522	n/a	28261	dot_no1_OFF	21	n/a	n/a	6
57.836	n/a	28918	dot_no6_ON	16	n/a	n/a	6
58.39	n/a	29195	dot_no6_OFF	26	n/a	n/a	6
59.702	n/a	29851	dot_no4_ON	14	n/a	n/a	6
60.254	n/a	30127	dot_no4_OFF	24	n/a	n/a	6
61.568	n/a	30784	dot_no2_ON	12	n/a	n/a	6
62.12	n/a	31060	dot_no2_OFF	22	n/a	n/a	6
63.432	n/a	31716	dot_no3_ON	13	n/a	n/a	6
63.984	n/a	31992	dot_no3_OFF	23	n/a	n/a	6
65.298	n/a	32649	dot_no5_ON	15	n/a	n/a	6
65.85	n/a	32925	dot_no5_OFF	25	n/a	n/a	6
67.162	n/a	33581	dot_no2_ON	12	n/a	n/a	6
67.716	n/a	33858	dot_no2_OFF	22	1-6-2-4-3-5-2	1-6-4-2-3-5-2	6
116.498	n/a	58249	learningBlock_2	32	n/a	n/a	6
116.504	n/a	58252	dot_no1_ON	11	n/a	n/a	6
117.056	n/a	58528	dot_no1_OFF	21	n/a	n/a	6
118.37	n/a	59185	dot_no6_ON	16	n/a	n/a	6
118.924	n/a	59462	dot_no6_OFF	26	n/a	n/a	6
120.236	n/a	60118	dot_no4_ON	14	n/a	n/a	6
120.79	n/a	60395	dot_no4_OFF	24	n/a	n/a	6
122.104	n/a	61052	dot_no2_ON	12	n/a	n/a	6
122.654	n/a	61327	dot_no2_OFF	22	n/a	n/a	6
123.968	n/a	61984	dot_no3_ON	13	n/a	n/a	6
124.522	n/a	62261	dot_no3_OFF	23	n/a	n/a	6
125.836	n/a	62918	dot_no5_ON	15	n/a	n/a	6
126.386	n/a	63193	dot_no5_OFF	25	n/a	n/a	6
127.7	n/a	63850	dot_no2_ON	12	n/a	n/a	6
128.262	n/a	64131	dot_no2_OFF	22	1-6-4-3-5-2-2	1-6-4-2-3-5-2	6
158.128	n/a	79064	learningBlock_3	33	n/a	n/a	6
158.136	n/a	79068	dot_no1_ON	11	n/a	n/a	6
158.688	n/a	79344	dot_no1_OFF	21	n/a	n/a	6
160	n/a	80000	dot_no6_ON	16	n/a	n/a	6
160.552	n/a	80276	dot_no6_OFF	26	n/a	n/a	6
161.866	n/a	80933	dot_no4_ON	14	n/a	n/a	6
162.42	n/a	81210	dot_no4_OFF	24	n/a	n/a	6
163.734	n/a	81867	dot_no2_ON	12	n/a	n/a	6
164.286	n/a	82143	dot_no2_OFF	22	n/a	n/a	6
165.6	n/a	82800	dot_no3_ON	13	n/a	n/a	6
166.15	n/a	83075	dot_no3_OFF	23	n/a	n/a	6
167.464	n/a	83732	dot_no5_ON	15	n/a	n/a	6
168.014	n/a	84007	dot_no5_OFF	25	n/a	n/a	6
169.328	n/a	84664	dot_no2_ON	12	n/a	n/a	6
169.876	n/a	84938	dot_no2_OFF	22	1-6-4-2-3-5-2	1-6-4-2-3-5-2	6
193.468	n/a	96734	learningBlock_4	34	n/a	n/a	6
193.474	n/a	96737	dot_no1_ON	11	n/a	n/a	6
194.022	n/a	97011	dot_no1_OFF	21	n/a	n/a	6
195.336	n/a	97668	dot_no6_ON	16	n/a	n/a	6
195.888	n/a	97944	dot_no6_OFF	26	n/a	n/a	6
197.2	n/a	98600	dot_no4_ON	14	n/a	n/a	6
197.754	n/a	98877	dot_no4_OFF	24	n/a	n/a	6
199.066	n/a	99533	dot_no2_ON	12	n/a	n/a	6
199.618	n/a	99809	dot_no2_OFF	22	n/a	n/a	6
200.93	n/a	100465	dot_no3_ON	13	n/a	n/a	6
201.482	n/a	100741	dot_no3_OFF	23	n/a	n/a	6
202.796	n/a	101398	dot_no5_ON	15	n/a	n/a	6
203.348	n/a	101674	dot_no5_OFF	25	n/a	n/a	6
204.66	n/a	102330	dot_no2_ON	12	n/a	n/a	6
205.214	n/a	102607	dot_no2_OFF	22	1-6-4-2-5-3-2	1-6-4-2-3-5-2	6
225.98	n/a	112990	learningBlock_5	35	n/a	n/a	6
225.986	n/a	112993	dot_no1_ON	11	n/a	n/a	6
226.538	n/a	113269	dot_no1_OFF	21	n/a	n/a	6
227.85	n/a	113925	dot_no6_ON	16	n/a	n/a	6
228.402	n/a	114201	dot_no6_OFF	26	n/a	n/a	6
229.716	n/a	114858	dot_no4_ON	14	n/a	n/a	6
230.266	n/a	115133	dot_no4_OFF	24	n/a	n/a	6
231.58	n/a	115790	dot_no2_ON	12	n/a	n/a	6
232.134	n/a	116067	dot_no2_OFF	22	n/a	n/a	6
233.446	n/a	116723	dot_no3_ON	13	n/a	n/a	6
233.998	n/a	116999	dot_no3_OFF	23	n/a	n/a	6
235.31	n/a	117655	dot_no5_ON	15	n/a	n/a	6
235.858	n/a	117929	dot_no5_OFF	25	n/a	n/a	6
237.172	n/a	118586	dot_no2_ON	12	n/a	n/a	6
237.724	n/a	118862	dot_no2_OFF	22	1-6-4-3-2-5-2	1-6-4-2-3-5-2	6
253.564	n/a	126782	seqLearning_stop	50	n/a	n/a	6
257.552	n/a	128776	break cnt	break cnt	n/a	n/a	6
257.553	n/a	128776.5	boundary	boundary	n/a	n/a	6
