onset	duration	sample	value	event_code	user_answer	correct_answer	target_count
0	n/a	0	break cnt	break cnt	n/a	n/a	8
23.442	n/a	11721	seqLearning_start	91	n/a	n/a	8
32.782	n/a	16391	learningBlock_1	31	n/a	n/a	8
32.8	n/a	16400	dot_no1_ON	11	n/a	n/a	8
33.39	n/a	16695	dot_no1_OFF	21	n/a	n/a	8
34.71	n/a	17355	dot_no6_ON	16	n/a	n/a	8
35.298	n/a	17649	dot_no6_OFF	26	n/a	n/a	8
36.618	n/a	18309	dot_no4_ON	14	n/a	n/a	8
37.208	n/a	18604	dot_no4_OFF	24	n/a	n/a	8
38.53	n/a	19265	dot_no2_ON	12	n/a	n/a	8
39.118	n/a	19559	dot_no2_OFF	22	n/a	n/a	8
40.44	n/a	20220	dot_no7_ON	17	n/a	n/a	8
41.028	n/a	20514	dot_no7_OFF	27	n/a	n/a	8
42.35	n/a	21175	dot_no3_ON	13	n/a	n/a	8
42.94	n/a	21470	dot_no3_OFF	23	n/a	n/a	8
44.26	n/a	22130	dot_no8_ON	18	n/a	n/a	8
44.848	n/a	22424	dot_no8_OFF	28	n/a	n/a	8
46.17	n/a	23085	dot_no5_ON	15	n/a	n/a	8
46.758	n/a	23379	dot_no5_OFF	25	n/a	n/a	8
48.08	n/a	24040	dot_no2_ON	12	n/a	n/a	8
48.668	n/a	24334	dot_no2_OFF	22	n/a	n/a	8
49.99	n/a	24995	dot_no7_ON	17	n/a	n/a	8
50.578	n/a	25289	dot_no7_OFF	27	1-6-3-2-8-4-7-5-1-8	1-6-4-2-7-3-8-5-2-7	8
130.456	n/a	65228	learningBlock_2	32	n/a	n/a	8
130.47	n/a	65235	dot_no1_ON	11	n/a	n/a	8
131.058	n/a	65529	dot_no1_OFF	21	n/a	n/a	8
132.38	n/a	66190	dot_no6_ON	16	n/a	n/a	8
132.97	n/a	66485	dot_no6_OFF	26	n/a	n/a	8
134.29	n/a	67145	dot_no4_ON	14	n/a	n/a	8
134.878	n/a	67439	dot_no4_OFF	24	n/a	n/a	8
136.2	n/a	68100	dot_no2_ON	12	n/a	n/a	8
136.788	n/a	68394	dot_no2_OFF	22	n/a	n/a	8
138.11	n/a	69055	dot_no7_ON	17	n/a	n/a	8
138.698	n/a	69349	dot_no7_OFF	27	n/a	n/a	8
140.02	n/a	70010	dot_no3_ON	13	n/a	n/a	8
140.61	n/a	70305	dot_no3_OFF	23	n/a	n/a	8
141.93	n/a	70965	dot_no8_ON	18	n/a	n/a	8
142.52	n/a	71260	dot_no8_OFF	28	n/a	n/a	8
143.84	n/a	71920	dot_no5_ON	15	n/a	n/a	8
144.43	n/a	72215	dot_no5_OFF	25	n/a	n/a	8
145.75	n/a	72875	dot_no2_ON	12	n/a	n/a	8
146.34	n/a	73170	dot_no2_OFF	22	n/a	n/a	8
147.66	n/a	73830	dot_no7_ON	17	n/a	n/a	8
148.25	n/a	74125	dot_no7_OFF	27	1-6-3-7-2-5-4-8-4-4	1-6-4-2-7-3-8-5-2-7	8
180.516	n/a	90258	learningBlock_3	33	n/a	n/a	8
180.53	n/a	90265	dot_no1_ON	11	n/a	n/a	8
181.12	n/a	90560	dot_no1_OFF	21	n/a	n/a	8
182.44	n/a	91220	dot_no6_ON	16	n/a	n/a	8
183.03	n/a	91515	dot_no6_OFF	26	n/a	n/a	8
184.35	n/a	92175	dot_no4_ON	14	n/a	n/a	8
184.938	n/a	92469	dot_no4_OFF	24	n/a	n/a	8
186.26	n/a	93130	dot_no2_ON	12	n/a	n/a	8
186.848	n/a	93424	dot_no2_OFF	22	n/a	n/a	8
188.17	n/a	94085	dot_no7_ON	17	n/a	n/a	8
188.76	n/a	94380	dot_no7_OFF	27	n/a	n/a	8
190.08	n/a	95040	dot_no3_ON	13	n/a	n/a	8
190.67	n/a	95335	dot_no3_OFF	23	n/a	n/a	8
191.99	n/a	95995	dot_no8_ON	18	n/a	n/a	8
192.58	n/a	96290	dot_no8_OFF	28	n/a	n/a	8
193.9	n/a	96950	dot_no5_ON	15	n/a	n/a	8
194.488	n/a	97244	dot_no5_OFF	25	n/a	n/a	8
195.81	n/a	97905	dot_no2_ON	12	n/a	n/a	8
196.398	n/a	98199	dot_no2_OFF	22	n/a	n/a	8
197.72	n/a	98860	dot_no7_ON	17	n/a	n/a	8
198.31	n/a	99155	dot_no7_OFF	27	1-6-3-2-7-4-8-5-6-3	1-6-4-2-7-3-8-5-2-7	8
226.948	n/a	113474	learningBlock_4	34	n/a	n/a	8
226.96	n/a	113480	dot_no1_ON	11	n/a	n/a	8
227.55	n/a	113775	dot_no1_OFF	21	n/a	n/a	8
228.87	n/a	114435	dot_no6_ON	16	n/a	n/a	8
229.46	n/a	114730	dot_no6_OFF	26	n/a	n/a	8
230.78	n/a	115390	dot_no4_ON	14	n/a	n/a	8
231.37	n/a	115685	dot_no4_OFF	24	n/a	n/a	8
232.69	n/a	116345	dot_no2_ON	12	n/a	n/a	8
233.28	n/a	116640	dot_no2_OFF	22	n/a	n/a	8
234.6	n/a	117300	dot_no7_ON	17	n/a	n/a	8
235.19	n/a	117595	dot_no7_OFF	27	n/a	n/a	8
236.51	n/a	118255	dot_no3_ON	13	n/a	n/a	8
237.1	n/a	118550	dot_no3_OFF	23	n/a	n/a	8
238.42	n/a	119210	dot_no8_ON	18	n/a	n/a	8
239.01	n/a	119505	dot_no8_OFF	28	n/a	n/a	8
240.33	n/a	120165	dot_no5_ON	15	n/a	n/a	8
240.92	n/a	120460	dot_no5_OFF	25	n/a	n/a	8
242.24	n/a	121120	dot_no2_ON	12	n/a	n/a	8
242.83	n/a	121415	dot_no2_OFF	22	n/a	n/a	8
244.15	n/a	122075	dot_no7_ON	17	n/a	n/a	8
244.74	n/a	122370	dot_no7_OFF	27	1-6-4-2-7-3-8-5-6-1	1-6-4-2-7-3-8-5-2-7	8
279.478	n/a	139739	learningBlock_5	35	n/a	n/a	8
279.49	n/a	139745	dot_no1_ON	11	n/a	n/a	8
280.08	n/a	140040	dot_no1_OFF	21	n/a	n/a	8
281.4	n/a	140700	dot_no6_ON	16	n/a	n/a	8
281.99	n/a	140995	dot_no6_OFF	26	n/a	n/a	8
283.31	n/a	141655	dot_no4_ON	14	n/a	n/a	8
283.9	n/a	141950	dot_no4_OFF	24	n/a	n/a	8
285.22	n/a	142610	dot_no2_ON	12	n/a	n/a	8
285.81	n/a	142905	dot_no2_OFF	22	n/a	n/a	8
287.13	n/a	143565	dot_no7_ON	17	n/a	n/a	8
287.72	n/a	143860	dot_no7_OFF	27	n/a	n/a	8
289.04	n/a	144520	dot_no3_ON	13	n/a	n/a	8
289.63	n/a	144815	dot_no3_OFF	23	n/a	n/a	8
290.95	n/a	145475	dot_no8_ON	18	n/a	n/a	8
291.54	n/a	145770	dot_no8_OFF	28	n/a	n/a	8
292.86	n/a	146430	dot_no5_ON	15	n/a	n/a	8
293.45	n/a	146725	dot_no5_OFF	25	n/a	n/a	8
294.77	n/a	147385	dot_no2_ON	12	n/a	n/a	8
295.36	n/a	147680	dot_no2_OFF	22	n/a	n/a	8
296.68	n/a	148340	dot_no7_ON	17	n/a	n/a	8
297.27	n/a	148635	dot_no7_OFF	27	1-6-4-2-3-8-5-1-7-1	1-6-4-2-7-3-8-5-2-7	8
328.698	n/a	164349	seqLearning_stop	50	n/a	n/a	8
332.703	n/a	166351.5	boundary	boundary	n/a	n/a	8
