onset	duration	sample	value	event_code	user_answer	correct_answer	target_count
0	n/a	0	break cnt	break cnt	n/a	n/a	8
58.036	n/a	29018	seqLearning_start	91	n/a	n/a	8
64.324	n/a	32162	learningBlock_1	31	n/a	n/a	8
64.354	n/a	32177	dot_no1_ON	11	n/a	n/a	8
64.944	n/a	32472	dot_no1_OFF	21	n/a	n/a	8
66.262	n/a	33131	dot_no6_ON	16	n/a	n/a	8
66.842	n/a	33421	dot_no6_OFF	26	n/a	n/a	8
68.162	n/a	34081	dot_no4_ON	14	n/a	n/a	8
68.742	n/a	34371	dot_no4_OFF	24	n/a	n/a	8
70.062	n/a	35031	dot_no2_ON	12	n/a	n/a	8
70.642	n/a	35321	dot_no2_OFF	22	n/a	n/a	8
71.962	n/a	35981	dot_no7_ON	17	n/a	n/a	8
72.542	n/a	36271	dot_no7_OFF	27	n/a	n/a	8
73.862	n/a	36931	dot_no3_ON	13	n/a	n/a	8
74.442	n/a	37221	dot_no3_OFF	23	n/a	n/a	8
75.762	n/a	37881	dot_no8_ON	18	n/a	n/a	8
76.342	n/a	38171	dot_no8_OFF	28	n/a	n/a	8
77.662	n/a	38831	dot_no5_ON	15	n/a	n/a	8
78.252	n/a	39126	dot_no5_OFF	25	n/a	n/a	8
79.572	n/a	39786	dot_no2_ON	12	n/a	n/a	8
80.152	n/a	40076	dot_no2_OFF	22	n/a	n/a	8
81.472	n/a	40736	dot_no7_ON	17	n/a	n/a	8
82.052	n/a	41026	dot_no7_OFF	27	1-3-6-7-4-2-8-5-3-7	1-6-4-2-7-3-8-5-2-7	8
123.084	n/a	61542	learningBlock_2	32	n/a	n/a	8
123.092	n/a	61546	dot_no1_ON	11	n/a	n/a	8
123.672	n/a	61836	dot_no1_OFF	21	n/a	n/a	8
124.992	n/a	62496	dot_no6_ON	16	n/a	n/a	8
125.572	n/a	62786	dot_no6_OFF	26	n/a	n/a	8
126.892	n/a	63446	dot_no4_ON	14	n/a	n/a	8
127.482	n/a	63741	dot_no4_OFF	24	n/a	n/a	8
128.802	n/a	64401	dot_no2_ON	12	n/a	n/a	8
129.382	n/a	64691	dot_no2_OFF	22	n/a	n/a	8
130.702	n/a	65351	dot_no7_ON	17	n/a	n/a	8
131.282	n/a	65641	dot_no7_OFF	27	n/a	n/a	8
132.602	n/a	66301	dot_no3_ON	13	n/a	n/a	8
133.182	n/a	66591	dot_no3_OFF	23	n/a	n/a	8
134.502	n/a	67251	dot_no8_ON	18	n/a	n/a	8
135.082	n/a	67541	dot_no8_OFF	28	n/a	n/a	8
136.402	n/a	68201	dot_no5_ON	15	n/a	n/a	8
136.982	n/a	68491	dot_no5_OFF	25	n/a	n/a	8
138.302	n/a	69151	dot_no2_ON	12	n/a	n/a	8
138.882	n/a	69441	dot_no2_OFF	22	n/a	n/a	8
140.202	n/a	70101	dot_no7_ON	17	n/a	n/a	8
140.782	n/a	70391	dot_no7_OFF	27	1-3-7-3-6-5-2-4-2-2	1-6-4-2-7-3-8-5-2-7	8
167.162	n/a	83581	learningBlock_3	33	n/a	n/a	8
167.17	n/a	83585	dot_no1_ON	11	n/a	n/a	8
167.75	n/a	83875	dot_no1_OFF	21	n/a	n/a	8
169.07	n/a	84535	dot_no6_ON	16	n/a	n/a	8
169.65	n/a	84825	dot_no6_OFF	26	n/a	n/a	8
170.97	n/a	85485	dot_no4_ON	14	n/a	n/a	8
171.55	n/a	85775	dot_no4_OFF	24	n/a	n/a	8
172.872	n/a	86436	dot_no2_ON	12	n/a	n/a	8
173.45	n/a	86725	dot_no2_OFF	22	n/a	n/a	8
174.77	n/a	87385	dot_no7_ON	17	n/a	n/a	8
175.35	n/a	87675	dot_no7_OFF	27	n/a	n/a	8
176.67	n/a	88335	dot_no3_ON	13	n/a	n/a	8
177.25	n/a	88625	dot_no3_OFF	23	n/a	n/a	8
178.57	n/a	89285	dot_no8_ON	18	n/a	n/a	8
179.15	n/a	89575	dot_no8_OFF	28	n/a	n/a	8
180.47	n/a	90235	dot_no5_ON	15	n/a	n/a	8
181.05	n/a	90525	dot_no5_OFF	25	n/a	n/a	8
182.37	n/a	91185	dot_no2_ON	12	n/a	n/a	8
182.95	n/a	91475	dot_no2_OFF	22	n/a	n/a	8
184.27	n/a	92135	dot_no7_ON	17	n/a	n/a	8
184.85	n/a	92425	dot_no7_OFF	27	1-3-5-3-7-6-4-4-8-2	1-6-4-2-7-3-8-5-2-7	8
221.092	n/a	110546	learningBlock_4	34	n/a	n/a	8
221.1	n/a	110550	dot_no1_ON	11	n/a	n/a	8
221.68	n/a	110840	dot_no1_OFF	21	n/a	n/a	8
223	n/a	111500	dot_no6_ON	16	n/a	n/a	8
223.58	n/a	111790	dot_no6_OFF	26	n/a	n/a	8
224.9	n/a	112450	dot_no4_ON	14	n/a	n/a	8
225.48	n/a	112740	dot_no4_OFF	24	n/a	n/a	8
226.8	n/a	113400	dot_no2_ON	12	n/a	n/a	8
227.38	n/a	113690	dot_no2_OFF	22	n/a	n/a	8
228.7	n/a	114350	dot_no7_ON	17	n/a	n/a	8
229.28	n/a	114640	dot_no7_OFF	27	n/a	n/a	8
230.6	n/a	115300	dot_no3_ON	13	n/a	n/a	8
231.18	n/a	115590	dot_no3_OFF	23	n/a	n/a	8
232.5	n/a	116250	dot_no8_ON	18	n/a	n/a	8
233.08	n/a	116540	dot_no8_OFF	28	n/a	n/a	8
234.4	n/a	117200	dot_no5_ON	15	n/a	n/a	8
234.98	n/a	117490	dot_no5_OFF	25	n/a	n/a	8
236.3	n/a	118150	dot_no2_ON	12	n/a	n/a	8
236.88	n/a	118440	dot_no2_OFF	22	n/a	n/a	8
238.2	n/a	119100	dot_no7_ON	17	n/a	n/a	8
238.78	n/a	119390	dot_no7_OFF	27	1-6-7-8-5-7-3-4-2-2	1-6-4-2-7-3-8-5-2-7	8
275.11	n/a	137555	learningBlock_5	35	n/a	n/a	8
275.118	n/a	137559	dot_no1_ON	11	n/a	n/a	8
275.698	n/a	137849	dot_no1_OFF	21	n/a	n/a	8
277.018	n/a	138509	dot_no6_ON	16	n/a	n/a	8
277.598	n/a	138799	dot_no6_OFF	26	n/a	n/a	8
278.918	n/a	139459	dot_no4_ON	14	n/a	n/a	8
279.518	n/a	139759	dot_no4_OFF	24	n/a	n/a	8
280.838	n/a	140419	dot_no2_ON	12	n/a	n/a	8
281.418	n/a	140709	dot_no2_OFF	22	n/a	n/a	8
282.738	n/a	141369	dot_no7_ON	17	n/a	n/a	8
283.318	n/a	141659	dot_no7_OFF	27	n/a	n/a	8
284.638	n/a	142319	dot_no3_ON	13	n/a	n/a	8
285.218	n/a	142609	dot_no3_OFF	23	n/a	n/a	8
286.538	n/a	143269	dot_no8_ON	18	n/a	n/a	8
287.128	n/a	143564	dot_no8_OFF	28	n/a	n/a	8
288.448	n/a	144224	dot_no5_ON	15	n/a	n/a	8
289.028	n/a	144514	dot_no5_OFF	25	n/a	n/a	8
290.348	n/a	145174	dot_no2_ON	12	n/a	n/a	8
290.928	n/a	145464	dot_no2_OFF	22	n/a	n/a	8
292.248	n/a	146124	dot_no7_ON	17	n/a	n/a	8
292.838	n/a	146419	dot_no7_OFF	27	1-1-7-5-2-4-6-8-8-3	1-6-4-2-7-3-8-5-2-7	8
316.4	n/a	158200	seqLearning_stop	50	n/a	n/a	8
323.173	n/a	161586.5	boundary	boundary	n/a	n/a	8
