onset	duration	sample	value	event_code	user_answer	correct_answer	target_count
0	n/a	0	break cnt	break cnt	n/a	n/a	8
89.284	n/a	44642	seqLearning_start	91	n/a	n/a	8
98.604	n/a	49302	learningBlock_1	31	n/a	n/a	8
98.622	n/a	49311	dot_no1_ON	11	n/a	n/a	8
99.212	n/a	49606	dot_no1_OFF	21	n/a	n/a	8
100.532	n/a	50266	dot_no6_ON	16	n/a	n/a	8
101.12	n/a	50560	dot_no6_OFF	26	n/a	n/a	8
102.442	n/a	51221	dot_no4_ON	14	n/a	n/a	8
103.03	n/a	51515	dot_no4_OFF	24	n/a	n/a	8
104.352	n/a	52176	dot_no2_ON	12	n/a	n/a	8
104.94	n/a	52470	dot_no2_OFF	22	n/a	n/a	8
106.262	n/a	53131	dot_no7_ON	17	n/a	n/a	8
106.852	n/a	53426	dot_no7_OFF	27	n/a	n/a	8
108.172	n/a	54086	dot_no3_ON	13	n/a	n/a	8
108.76	n/a	54380	dot_no3_OFF	23	n/a	n/a	8
110.082	n/a	55041	dot_no8_ON	18	n/a	n/a	8
110.67	n/a	55335	dot_no8_OFF	28	n/a	n/a	8
111.992	n/a	55996	dot_no5_ON	15	n/a	n/a	8
112.58	n/a	56290	dot_no5_OFF	25	n/a	n/a	8
113.902	n/a	56951	dot_no2_ON	12	n/a	n/a	8
114.49	n/a	57245	dot_no2_OFF	22	n/a	n/a	8
115.812	n/a	57906	dot_no7_ON	17	n/a	n/a	8
116.4	n/a	58200	dot_no7_OFF	27	1-7-6-5-4-3-2-1-7-8	1-6-4-2-7-3-8-5-2-7	8
158.724	n/a	79362	learningBlock_2	32	n/a	n/a	8
158.732	n/a	79366	dot_no1_ON	11	n/a	n/a	8
159.32	n/a	79660	dot_no1_OFF	21	n/a	n/a	8
160.642	n/a	80321	dot_no6_ON	16	n/a	n/a	8
161.23	n/a	80615	dot_no6_OFF	26	n/a	n/a	8
162.552	n/a	81276	dot_no4_ON	14	n/a	n/a	8
163.15	n/a	81575	dot_no4_OFF	24	n/a	n/a	8
164.472	n/a	82236	dot_no2_ON	12	n/a	n/a	8
165.06	n/a	82530	dot_no2_OFF	22	n/a	n/a	8
166.382	n/a	83191	dot_no7_ON	17	n/a	n/a	8
166.97	n/a	83485	dot_no7_OFF	27	n/a	n/a	8
168.292	n/a	84146	dot_no3_ON	13	n/a	n/a	8
168.882	n/a	84441	dot_no3_OFF	23	n/a	n/a	8
170.202	n/a	85101	dot_no8_ON	18	n/a	n/a	8
170.79	n/a	85395	dot_no8_OFF	28	n/a	n/a	8
172.112	n/a	86056	dot_no5_ON	15	n/a	n/a	8
172.7	n/a	86350	dot_no5_OFF	25	n/a	n/a	8
174.022	n/a	87011	dot_no2_ON	12	n/a	n/a	8
174.612	n/a	87306	dot_no2_OFF	22	n/a	n/a	8
175.932	n/a	87966	dot_no7_ON	17	n/a	n/a	8
176.52	n/a	88260	dot_no7_OFF	27	1-8-7-6-5-4-3-2-7-1	1-6-4-2-7-3-8-5-2-7	8
197.558	n/a	98779	learningBlock_3	33	n/a	n/a	8
197.572	n/a	98786	dot_no1_ON	11	n/a	n/a	8
198.162	n/a	99081	dot_no1_OFF	21	n/a	n/a	8
199.482	n/a	99741	dot_no6_ON	16	n/a	n/a	8
200.072	n/a	100036	dot_no6_OFF	26	n/a	n/a	8
201.392	n/a	100696	dot_no4_ON	14	n/a	n/a	8
201.98	n/a	100990	dot_no4_OFF	24	n/a	n/a	8
203.302	n/a	101651	dot_no2_ON	12	n/a	n/a	8
203.89	n/a	101945	dot_no2_OFF	22	n/a	n/a	8
205.212	n/a	102606	dot_no7_ON	17	n/a	n/a	8
205.802	n/a	102901	dot_no7_OFF	27	n/a	n/a	8
207.122	n/a	103561	dot_no3_ON	13	n/a	n/a	8
207.712	n/a	103856	dot_no3_OFF	23	n/a	n/a	8
209.032	n/a	104516	dot_no8_ON	18	n/a	n/a	8
209.622	n/a	104811	dot_no8_OFF	28	n/a	n/a	8
210.942	n/a	105471	dot_no5_ON	15	n/a	n/a	8
211.53	n/a	105765	dot_no5_OFF	25	n/a	n/a	8
212.852	n/a	106426	dot_no2_ON	12	n/a	n/a	8
213.442	n/a	106721	dot_no2_OFF	22	n/a	n/a	8
214.762	n/a	107381	dot_no7_ON	17	n/a	n/a	8
215.352	n/a	107676	dot_no7_OFF	27	1-7-5-3-1-7-5-3-1-7	1-6-4-2-7-3-8-5-2-7	8
255.226	n/a	127613	learningBlock_4	34	n/a	n/a	8
255.232	n/a	127616	dot_no1_ON	11	n/a	n/a	8
255.822	n/a	127911	dot_no1_OFF	21	n/a	n/a	8
257.142	n/a	128571	dot_no6_ON	16	n/a	n/a	8
257.732	n/a	128866	dot_no6_OFF	26	n/a	n/a	8
259.052	n/a	129526	dot_no4_ON	14	n/a	n/a	8
259.642	n/a	129821	dot_no4_OFF	24	n/a	n/a	8
260.962	n/a	130481	dot_no2_ON	12	n/a	n/a	8
261.552	n/a	130776	dot_no2_OFF	22	n/a	n/a	8
262.872	n/a	131436	dot_no7_ON	17	n/a	n/a	8
263.462	n/a	131731	dot_no7_OFF	27	n/a	n/a	8
264.782	n/a	132391	dot_no3_ON	13	n/a	n/a	8
265.372	n/a	132686	dot_no3_OFF	23	n/a	n/a	8
266.692	n/a	133346	dot_no8_ON	18	n/a	n/a	8
267.282	n/a	133641	dot_no8_OFF	28	n/a	n/a	8
268.602	n/a	134301	dot_no5_ON	15	n/a	n/a	8
269.192	n/a	134596	dot_no5_OFF	25	n/a	n/a	8
270.512	n/a	135256	dot_no2_ON	12	n/a	n/a	8
271.102	n/a	135551	dot_no2_OFF	22	n/a	n/a	8
272.422	n/a	136211	dot_no7_ON	17	n/a	n/a	8
273.012	n/a	136506	dot_no7_OFF	27	1-7-5-4-3-2-7-1-8-7	1-6-4-2-7-3-8-5-2-7	8
295.906	n/a	147953	learningBlock_5	35	n/a	n/a	8
295.914	n/a	147957	dot_no1_ON	11	n/a	n/a	8
296.502	n/a	148251	dot_no1_OFF	21	n/a	n/a	8
297.822	n/a	148911	dot_no6_ON	16	n/a	n/a	8
298.412	n/a	149206	dot_no6_OFF	26	n/a	n/a	8
299.732	n/a	149866	dot_no4_ON	14	n/a	n/a	8
300.322	n/a	150161	dot_no4_OFF	24	n/a	n/a	8
301.642	n/a	150821	dot_no2_ON	12	n/a	n/a	8
302.232	n/a	151116	dot_no2_OFF	22	n/a	n/a	8
303.552	n/a	151776	dot_no7_ON	17	n/a	n/a	8
304.142	n/a	152071	dot_no7_OFF	27	n/a	n/a	8
305.462	n/a	152731	dot_no3_ON	13	n/a	n/a	8
306.052	n/a	153026	dot_no3_OFF	23	n/a	n/a	8
307.374	n/a	153687	dot_no8_ON	18	n/a	n/a	8
307.962	n/a	153981	dot_no8_OFF	28	n/a	n/a	8
309.282	n/a	154641	dot_no5_ON	15	n/a	n/a	8
309.872	n/a	154936	dot_no5_OFF	25	n/a	n/a	8
311.194	n/a	155597	dot_no2_ON	12	n/a	n/a	8
311.782	n/a	155891	dot_no2_OFF	22	n/a	n/a	8
313.102	n/a	156551	dot_no7_ON	17	n/a	n/a	8
313.692	n/a	156846	dot_no7_OFF	27	1-8-7-6-5-4-3-2-1-5	1-6-4-2-7-3-8-5-2-7	8
329.394	n/a	164697	seqLearning_stop	50	n/a	n/a	8
332.257	n/a	166128.5	boundary	boundary	n/a	n/a	8
