onset	duration	sample	value	event_code	user_answer	correct_answer	target_count
0	n/a	0	break cnt	break cnt	n/a	n/a	8
71.86	n/a	35930	seqLearning_start	91	n/a	n/a	8
78.142	n/a	39071	learningBlock_1	31	n/a	n/a	8
78.166	n/a	39083	dot_no1_ON	11	n/a	n/a	8
78.754	n/a	39377	dot_no1_OFF	21	n/a	n/a	8
80.074	n/a	40037	dot_no6_ON	16	n/a	n/a	8
80.654	n/a	40327	dot_no6_OFF	26	n/a	n/a	8
81.974	n/a	40987	dot_no4_ON	14	n/a	n/a	8
82.554	n/a	41277	dot_no4_OFF	24	n/a	n/a	8
83.874	n/a	41937	dot_no2_ON	12	n/a	n/a	8
84.454	n/a	42227	dot_no2_OFF	22	n/a	n/a	8
85.774	n/a	42887	dot_no7_ON	17	n/a	n/a	8
86.354	n/a	43177	dot_no7_OFF	27	n/a	n/a	8
87.674	n/a	43837	dot_no3_ON	13	n/a	n/a	8
88.254	n/a	44127	dot_no3_OFF	23	n/a	n/a	8
89.574	n/a	44787	dot_no8_ON	18	n/a	n/a	8
90.154	n/a	45077	dot_no8_OFF	28	n/a	n/a	8
91.494	n/a	45747	dot_no5_ON	15	n/a	n/a	8
92.084	n/a	46042	dot_no5_OFF	25	n/a	n/a	8
93.404	n/a	46702	dot_no2_ON	12	n/a	n/a	8
93.984	n/a	46992	dot_no2_OFF	22	n/a	n/a	8
95.304	n/a	47652	dot_no7_ON	17	n/a	n/a	8
95.884	n/a	47942	dot_no7_OFF	27	1-6-4-2-5-7-3-3-8-7	1-6-4-2-7-3-8-5-2-7	8
122.686	n/a	61343	learningBlock_2	32	n/a	n/a	8
122.694	n/a	61347	dot_no1_ON	11	n/a	n/a	8
123.274	n/a	61637	dot_no1_OFF	21	n/a	n/a	8
124.594	n/a	62297	dot_no6_ON	16	n/a	n/a	8
125.174	n/a	62587	dot_no6_OFF	26	n/a	n/a	8
126.494	n/a	63247	dot_no4_ON	14	n/a	n/a	8
127.074	n/a	63537	dot_no4_OFF	24	n/a	n/a	8
128.394	n/a	64197	dot_no2_ON	12	n/a	n/a	8
128.974	n/a	64487	dot_no2_OFF	22	n/a	n/a	8
130.294	n/a	65147	dot_no7_ON	17	n/a	n/a	8
130.874	n/a	65437	dot_no7_OFF	27	n/a	n/a	8
132.194	n/a	66097	dot_no3_ON	13	n/a	n/a	8
132.784	n/a	66392	dot_no3_OFF	23	n/a	n/a	8
134.104	n/a	67052	dot_no8_ON	18	n/a	n/a	8
134.684	n/a	67342	dot_no8_OFF	28	n/a	n/a	8
136.004	n/a	68002	dot_no5_ON	15	n/a	n/a	8
136.584	n/a	68292	dot_no5_OFF	25	n/a	n/a	8
137.904	n/a	68952	dot_no2_ON	12	n/a	n/a	8
138.484	n/a	69242	dot_no2_OFF	22	n/a	n/a	8
139.804	n/a	69902	dot_no7_ON	17	n/a	n/a	8
140.384	n/a	70192	dot_no7_OFF	27	1-6-4-2-6-3-3-5-8-7	1-6-4-2-7-3-8-5-2-7	8
173.024	n/a	86512	learningBlock_3	33	n/a	n/a	8
173.032	n/a	86516	dot_no1_ON	11	n/a	n/a	8
173.612	n/a	86806	dot_no1_OFF	21	n/a	n/a	8
174.932	n/a	87466	dot_no6_ON	16	n/a	n/a	8
175.512	n/a	87756	dot_no6_OFF	26	n/a	n/a	8
176.832	n/a	88416	dot_no4_ON	14	n/a	n/a	8
177.412	n/a	88706	dot_no4_OFF	24	n/a	n/a	8
178.732	n/a	89366	dot_no2_ON	12	n/a	n/a	8
179.312	n/a	89656	dot_no2_OFF	22	n/a	n/a	8
180.632	n/a	90316	dot_no7_ON	17	n/a	n/a	8
181.212	n/a	90606	dot_no7_OFF	27	n/a	n/a	8
182.532	n/a	91266	dot_no3_ON	13	n/a	n/a	8
183.112	n/a	91556	dot_no3_OFF	23	n/a	n/a	8
184.434	n/a	92217	dot_no8_ON	18	n/a	n/a	8
185.012	n/a	92506	dot_no8_OFF	28	n/a	n/a	8
186.332	n/a	93166	dot_no5_ON	15	n/a	n/a	8
186.912	n/a	93456	dot_no5_OFF	25	n/a	n/a	8
188.232	n/a	94116	dot_no2_ON	12	n/a	n/a	8
188.812	n/a	94406	dot_no2_OFF	22	n/a	n/a	8
190.132	n/a	95066	dot_no7_ON	17	n/a	n/a	8
190.712	n/a	95356	dot_no7_OFF	27	1-6-4-2-7-3-8-5-7-7	1-6-4-2-7-3-8-5-2-7	8
211.034	n/a	105517	learningBlock_4	34	n/a	n/a	8
211.042	n/a	105521	dot_no1_ON	11	n/a	n/a	8
211.622	n/a	105811	dot_no1_OFF	21	n/a	n/a	8
212.942	n/a	106471	dot_no6_ON	16	n/a	n/a	8
213.522	n/a	106761	dot_no6_OFF	26	n/a	n/a	8
214.842	n/a	107421	dot_no4_ON	14	n/a	n/a	8
215.422	n/a	107711	dot_no4_OFF	24	n/a	n/a	8
216.742	n/a	108371	dot_no2_ON	12	n/a	n/a	8
217.332	n/a	108666	dot_no2_OFF	22	n/a	n/a	8
218.652	n/a	109326	dot_no7_ON	17	n/a	n/a	8
219.232	n/a	109616	dot_no7_OFF	27	n/a	n/a	8
220.552	n/a	110276	dot_no3_ON	13	n/a	n/a	8
221.132	n/a	110566	dot_no3_OFF	23	n/a	n/a	8
222.452	n/a	111226	dot_no8_ON	18	n/a	n/a	8
223.032	n/a	111516	dot_no8_OFF	28	n/a	n/a	8
224.352	n/a	112176	dot_no5_ON	15	n/a	n/a	8
224.942	n/a	112471	dot_no5_OFF	25	n/a	n/a	8
226.262	n/a	113131	dot_no2_ON	12	n/a	n/a	8
226.842	n/a	113421	dot_no2_OFF	22	n/a	n/a	8
228.162	n/a	114081	dot_no7_ON	17	n/a	n/a	8
228.742	n/a	114371	dot_no7_OFF	27	1-6-4-2-7-3-2-8-5-2	1-6-4-2-7-3-8-5-2-7	8
252.474	n/a	126237	learningBlock_5	35	n/a	n/a	8
252.48	n/a	126240	dot_no1_ON	11	n/a	n/a	8
253.062	n/a	126531	dot_no1_OFF	21	n/a	n/a	8
254.382	n/a	127191	dot_no6_ON	16	n/a	n/a	8
254.962	n/a	127481	dot_no6_OFF	26	n/a	n/a	8
256.282	n/a	128141	dot_no4_ON	14	n/a	n/a	8
256.862	n/a	128431	dot_no4_OFF	24	n/a	n/a	8
258.182	n/a	129091	dot_no2_ON	12	n/a	n/a	8
258.762	n/a	129381	dot_no2_OFF	22	n/a	n/a	8
260.08	n/a	130040	dot_no7_ON	17	n/a	n/a	8
260.66	n/a	130330	dot_no7_OFF	27	n/a	n/a	8
261.98	n/a	130990	dot_no3_ON	13	n/a	n/a	8
262.56	n/a	131280	dot_no3_OFF	23	n/a	n/a	8
263.88	n/a	131940	dot_no8_ON	18	n/a	n/a	8
264.48	n/a	132240	dot_no8_OFF	28	n/a	n/a	8
265.8	n/a	132900	dot_no5_ON	15	n/a	n/a	8
266.38	n/a	133190	dot_no5_OFF	25	n/a	n/a	8
267.7	n/a	133850	dot_no2_ON	12	n/a	n/a	8
268.28	n/a	134140	dot_no2_OFF	22	n/a	n/a	8
269.6	n/a	134800	dot_no7_ON	17	n/a	n/a	8
270.19	n/a	135095	dot_no7_OFF	27	1-6-4-2-2-7-3-8-5-2	1-6-4-2-7-3-8-5-2-7	8
286.944	n/a	143472	seqLearning_stop	50	n/a	n/a	8
292.627	n/a	146313.5	boundary	boundary	n/a	n/a	8
