onset	duration	sample	value	event_code	user_answer	correct_answer	target_count
0	n/a	0	break cnt	break cnt	n/a	n/a	8
98.282	n/a	49141	seqLearning_start	91	n/a	n/a	8
105.586	n/a	52793	learningBlock_1	31	n/a	n/a	8
105.602	n/a	52801	dot_no1_ON	11	n/a	n/a	8
106.156	n/a	53078	dot_no1_OFF	21	n/a	n/a	8
107.47	n/a	53735	dot_no6_ON	16	n/a	n/a	8
108.022	n/a	54011	dot_no6_OFF	26	n/a	n/a	8
109.336	n/a	54668	dot_no4_ON	14	n/a	n/a	8
109.886	n/a	54943	dot_no4_OFF	24	n/a	n/a	8
111.2	n/a	55600	dot_no2_ON	12	n/a	n/a	8
111.752	n/a	55876	dot_no2_OFF	22	n/a	n/a	8
113.066	n/a	56533	dot_no7_ON	17	n/a	n/a	8
113.616	n/a	56808	dot_no7_OFF	27	n/a	n/a	8
114.93	n/a	57465	dot_no3_ON	13	n/a	n/a	8
115.482	n/a	57741	dot_no3_OFF	23	n/a	n/a	8
116.796	n/a	58398	dot_no8_ON	18	n/a	n/a	8
117.348	n/a	58674	dot_no8_OFF	28	n/a	n/a	8
118.662	n/a	59331	dot_no5_ON	15	n/a	n/a	8
119.212	n/a	59606	dot_no5_OFF	25	n/a	n/a	8
120.526	n/a	60263	dot_no2_ON	12	n/a	n/a	8
121.076	n/a	60538	dot_no2_OFF	22	n/a	n/a	8
122.39	n/a	61195	dot_no7_ON	17	n/a	n/a	8
122.942	n/a	61471	dot_no7_OFF	27	1-6-8-4-3-7-5-2-8-7	1-6-4-2-7-3-8-5-2-7	8
151.332	n/a	75666	learningBlock_2	32	n/a	n/a	8
151.34	n/a	75670	dot_no1_ON	11	n/a	n/a	8
151.89	n/a	75945	dot_no1_OFF	21	n/a	n/a	8
153.202	n/a	76601	dot_no6_ON	16	n/a	n/a	8
153.756	n/a	76878	dot_no6_OFF	26	n/a	n/a	8
155.068	n/a	77534	dot_no4_ON	14	n/a	n/a	8
155.618	n/a	77809	dot_no4_OFF	24	n/a	n/a	8
156.932	n/a	78466	dot_no2_ON	12	n/a	n/a	8
157.486	n/a	78743	dot_no2_OFF	22	n/a	n/a	8
158.798	n/a	79399	dot_no7_ON	17	n/a	n/a	8
159.35	n/a	79675	dot_no7_OFF	27	n/a	n/a	8
160.662	n/a	80331	dot_no3_ON	13	n/a	n/a	8
161.216	n/a	80608	dot_no3_OFF	23	n/a	n/a	8
162.53	n/a	81265	dot_no8_ON	18	n/a	n/a	8
163.084	n/a	81542	dot_no8_OFF	28	n/a	n/a	8
164.398	n/a	82199	dot_no5_ON	15	n/a	n/a	8
164.948	n/a	82474	dot_no5_OFF	25	n/a	n/a	8
166.262	n/a	83131	dot_no2_ON	12	n/a	n/a	8
166.812	n/a	83406	dot_no2_OFF	22	n/a	n/a	8
168.124	n/a	84062	dot_no7_ON	17	n/a	n/a	8
168.676	n/a	84338	dot_no7_OFF	27	1-6-4-2-7-5-8-3-1-6	1-6-4-2-7-3-8-5-2-7	8
198.794	n/a	99397	learningBlock_3	33	n/a	n/a	8
198.8	n/a	99400	dot_no1_ON	11	n/a	n/a	8
199.352	n/a	99676	dot_no1_OFF	21	n/a	n/a	8
200.666	n/a	100333	dot_no6_ON	16	n/a	n/a	8
201.216	n/a	100608	dot_no6_OFF	26	n/a	n/a	8
202.53	n/a	101265	dot_no4_ON	14	n/a	n/a	8
203.082	n/a	101541	dot_no4_OFF	24	n/a	n/a	8
204.396	n/a	102198	dot_no2_ON	12	n/a	n/a	8
204.948	n/a	102474	dot_no2_OFF	22	n/a	n/a	8
206.264	n/a	103132	dot_no7_ON	17	n/a	n/a	8
206.814	n/a	103407	dot_no7_OFF	27	n/a	n/a	8
208.128	n/a	104064	dot_no3_ON	13	n/a	n/a	8
208.676	n/a	104338	dot_no3_OFF	23	n/a	n/a	8
209.99	n/a	104995	dot_no8_ON	18	n/a	n/a	8
210.544	n/a	105272	dot_no8_OFF	28	n/a	n/a	8
211.858	n/a	105929	dot_no5_ON	15	n/a	n/a	8
212.41	n/a	106205	dot_no5_OFF	25	n/a	n/a	8
213.724	n/a	106862	dot_no2_ON	12	n/a	n/a	8
214.278	n/a	107139	dot_no2_OFF	22	n/a	n/a	8
215.592	n/a	107796	dot_no7_ON	17	n/a	n/a	8
216.142	n/a	108071	dot_no7_OFF	27	1-6-8-4-2-5-3-7-5-3	1-6-4-2-7-3-8-5-2-7	8
237.61	n/a	118805	learningBlock_4	34	n/a	n/a	8
237.616	n/a	118808	dot_no1_ON	11	n/a	n/a	8
238.17	n/a	119085	dot_no1_OFF	21	n/a	n/a	8
239.484	n/a	119742	dot_no6_ON	16	n/a	n/a	8
240.036	n/a	120018	dot_no6_OFF	26	n/a	n/a	8
241.35	n/a	120675	dot_no4_ON	14	n/a	n/a	8
241.904	n/a	120952	dot_no4_OFF	24	n/a	n/a	8
243.218	n/a	121609	dot_no2_ON	12	n/a	n/a	8
243.77	n/a	121885	dot_no2_OFF	22	n/a	n/a	8
245.084	n/a	122542	dot_no7_ON	17	n/a	n/a	8
245.642	n/a	122821	dot_no7_OFF	27	n/a	n/a	8
246.956	n/a	123478	dot_no3_ON	13	n/a	n/a	8
247.506	n/a	123753	dot_no3_OFF	23	n/a	n/a	8
248.82	n/a	124410	dot_no8_ON	18	n/a	n/a	8
249.374	n/a	124687	dot_no8_OFF	28	n/a	n/a	8
250.686	n/a	125343	dot_no5_ON	15	n/a	n/a	8
251.24	n/a	125620	dot_no5_OFF	25	n/a	n/a	8
252.552	n/a	126276	dot_no2_ON	12	n/a	n/a	8
253.106	n/a	126553	dot_no2_OFF	22	n/a	n/a	8
254.42	n/a	127210	dot_no7_ON	17	n/a	n/a	8
254.972	n/a	127486	dot_no7_OFF	27	1-6-7-4-3-8-5-2-8-5	1-6-4-2-7-3-8-5-2-7	8
273.622	n/a	136811	learningBlock_5	35	n/a	n/a	8
273.628	n/a	136814	dot_no1_ON	11	n/a	n/a	8
274.182	n/a	137091	dot_no1_OFF	21	n/a	n/a	8
275.496	n/a	137748	dot_no6_ON	16	n/a	n/a	8
276.048	n/a	138024	dot_no6_OFF	26	n/a	n/a	8
277.362	n/a	138681	dot_no4_ON	14	n/a	n/a	8
277.912	n/a	138956	dot_no4_OFF	24	n/a	n/a	8
279.224	n/a	139612	dot_no2_ON	12	n/a	n/a	8
279.776	n/a	139888	dot_no2_OFF	22	n/a	n/a	8
281.09	n/a	140545	dot_no7_ON	17	n/a	n/a	8
281.644	n/a	140822	dot_no7_OFF	27	n/a	n/a	8
282.958	n/a	141479	dot_no3_ON	13	n/a	n/a	8
283.508	n/a	141754	dot_no3_OFF	23	n/a	n/a	8
284.822	n/a	142411	dot_no8_ON	18	n/a	n/a	8
285.378	n/a	142689	dot_no8_OFF	28	n/a	n/a	8
286.69	n/a	143345	dot_no5_ON	15	n/a	n/a	8
287.244	n/a	143622	dot_no5_OFF	25	n/a	n/a	8
288.558	n/a	144279	dot_no2_ON	12	n/a	n/a	8
289.11	n/a	144555	dot_no2_OFF	22	n/a	n/a	8
290.424	n/a	145212	dot_no7_ON	17	n/a	n/a	8
290.974	n/a	145487	dot_no7_OFF	27	1-6-8-4-2-5-7-3-2-7	1-6-4-2-7-3-8-5-2-7	8
308.832	n/a	154416	seqLearning_stop	50	n/a	n/a	8
311.703	n/a	155851.5	boundary	boundary	n/a	n/a	8
