onset	duration	sample	value	event_code	user_answer	correct_answer
0	n/a	0	break cnt	break cnt	n/a	n/a
31.476	n/a	15738	symbolSearch_start	92	n/a	n/a
34.398	n/a	17199	newPage	20	n/a	n/a
42	n/a	21000	trialResponse	14	0	0
44.822	n/a	22411	trialResponse	14	1	1
48.94	n/a	24470	trialResponse	14	0	0
56.7	n/a	28350	trialResponse	14	0	0
65.54	n/a	32770	trialResponse	14	0	0
70.156	n/a	35078	trialResponse	14	1	1
76.502	n/a	38251	trialResponse	14	0	0
80.908	n/a	40454	trialResponse	14	1	1
87.148	n/a	43574	trialResponse	14	0	0
94.334	n/a	47167	trialResponse	14	0	0
105.374	n/a	52687	trialResponse	14	0	0
108.126	n/a	54063	trialResponse	14	1	1
112.02	n/a	56010	trialResponse	14	0	0
115.332	n/a	57666	trialResponse	14	1	1
118.078	n/a	59039	trialResponse	14	1	1
119.502	n/a	59751	newPage	20	n/a	n/a
124.292	n/a	62146	trialResponse	14	1	1
127.054	n/a	63527	trialResponse	14	1	1
133.358	n/a	66679	trialResponse	14	0	0
137.972	n/a	68986	trialResponse	14	1	1
145.054	n/a	72527	trialResponse	14	0	0
147.724	n/a	73862	trialResponse	14	1	1
152.5	n/a	76250	trialResponse	14	0	0
155.164	n/a	77582	trialResponse	14	1	1
155.174	n/a	77587	newPage	20	n/a	n/a
161.981	n/a	80990.5	boundary	boundary	n/a	n/a
