onset	duration	sample	value	event_code	user_answer	correct_answer	target_count
0	n/a	0	break cnt	break cnt	n/a	n/a	8
52.482	n/a	26241	seqLearning_start	91	n/a	n/a	8
59.774	n/a	29887	learningBlock_1	31	n/a	n/a	8
59.79	n/a	29895	dot_no1_ON	11	n/a	n/a	8
60.344	n/a	30172	dot_no1_OFF	21	n/a	n/a	8
61.658	n/a	30829	dot_no6_ON	16	n/a	n/a	8
62.214	n/a	31107	dot_no6_OFF	26	n/a	n/a	8
63.528	n/a	31764	dot_no4_ON	14	n/a	n/a	8
64.08	n/a	32040	dot_no4_OFF	24	n/a	n/a	8
65.392	n/a	32696	dot_no2_ON	12	n/a	n/a	8
65.944	n/a	32972	dot_no2_OFF	22	n/a	n/a	8
67.258	n/a	33629	dot_no7_ON	17	n/a	n/a	8
67.81	n/a	33905	dot_no7_OFF	27	n/a	n/a	8
69.124	n/a	34562	dot_no3_ON	13	n/a	n/a	8
69.674	n/a	34837	dot_no3_OFF	23	n/a	n/a	8
70.988	n/a	35494	dot_no8_ON	18	n/a	n/a	8
71.542	n/a	35771	dot_no8_OFF	28	n/a	n/a	8
72.854	n/a	36427	dot_no5_ON	15	n/a	n/a	8
73.408	n/a	36704	dot_no5_OFF	25	n/a	n/a	8
74.72	n/a	37360	dot_no2_ON	12	n/a	n/a	8
75.272	n/a	37636	dot_no2_OFF	22	n/a	n/a	8
76.584	n/a	38292	dot_no7_ON	17	n/a	n/a	8
77.136	n/a	38568	dot_no7_OFF	27	8-5-2-6-1-4-3-7-2-7	1-6-4-2-7-3-8-5-2-7	8
103.366	n/a	51683	learningBlock_2	32	n/a	n/a	8
103.372	n/a	51686	dot_no1_ON	11	n/a	n/a	8
103.928	n/a	51964	dot_no1_OFF	21	n/a	n/a	8
105.24	n/a	52620	dot_no6_ON	16	n/a	n/a	8
105.792	n/a	52896	dot_no6_OFF	26	n/a	n/a	8
107.106	n/a	53553	dot_no4_ON	14	n/a	n/a	8
107.658	n/a	53829	dot_no4_OFF	24	n/a	n/a	8
108.972	n/a	54486	dot_no2_ON	12	n/a	n/a	8
109.524	n/a	54762	dot_no2_OFF	22	n/a	n/a	8
110.838	n/a	55419	dot_no7_ON	17	n/a	n/a	8
111.392	n/a	55696	dot_no7_OFF	27	n/a	n/a	8
112.706	n/a	56353	dot_no3_ON	13	n/a	n/a	8
113.258	n/a	56629	dot_no3_OFF	23	n/a	n/a	8
114.572	n/a	57286	dot_no8_ON	18	n/a	n/a	8
115.124	n/a	57562	dot_no8_OFF	28	n/a	n/a	8
116.44	n/a	58220	dot_no5_ON	15	n/a	n/a	8
116.992	n/a	58496	dot_no5_OFF	25	n/a	n/a	8
118.304	n/a	59152	dot_no2_ON	12	n/a	n/a	8
118.856	n/a	59428	dot_no2_OFF	22	n/a	n/a	8
120.168	n/a	60084	dot_no7_ON	17	n/a	n/a	8
120.718	n/a	60359	dot_no7_OFF	27	6-1-2-5-4-8-5-2-1-1	1-6-4-2-7-3-8-5-2-7	8
146.202	n/a	73101	learningBlock_3	33	n/a	n/a	8
146.21	n/a	73105	dot_no1_ON	11	n/a	n/a	8
146.762	n/a	73381	dot_no1_OFF	21	n/a	n/a	8
148.074	n/a	74037	dot_no6_ON	16	n/a	n/a	8
148.628	n/a	74314	dot_no6_OFF	26	n/a	n/a	8
149.942	n/a	74971	dot_no4_ON	14	n/a	n/a	8
150.494	n/a	75247	dot_no4_OFF	24	n/a	n/a	8
151.81	n/a	75905	dot_no2_ON	12	n/a	n/a	8
152.362	n/a	76181	dot_no2_OFF	22	n/a	n/a	8
153.676	n/a	76838	dot_no7_ON	17	n/a	n/a	8
154.226	n/a	77113	dot_no7_OFF	27	n/a	n/a	8
155.54	n/a	77770	dot_no3_ON	13	n/a	n/a	8
156.092	n/a	78046	dot_no3_OFF	23	n/a	n/a	8
157.404	n/a	78702	dot_no8_ON	18	n/a	n/a	8
157.962	n/a	78981	dot_no8_OFF	28	n/a	n/a	8
159.276	n/a	79638	dot_no5_ON	15	n/a	n/a	8
159.83	n/a	79915	dot_no5_OFF	25	n/a	n/a	8
161.144	n/a	80572	dot_no2_ON	12	n/a	n/a	8
161.696	n/a	80848	dot_no2_OFF	22	n/a	n/a	8
163.01	n/a	81505	dot_no7_ON	17	n/a	n/a	8
163.564	n/a	81782	dot_no7_OFF	27	4-1-6-3-8-5-2-8-7-3	1-6-4-2-7-3-8-5-2-7	8
184.712	n/a	92356	learningBlock_4	34	n/a	n/a	8
184.718	n/a	92359	dot_no1_ON	11	n/a	n/a	8
185.27	n/a	92635	dot_no1_OFF	21	n/a	n/a	8
186.584	n/a	93292	dot_no6_ON	16	n/a	n/a	8
187.134	n/a	93567	dot_no6_OFF	26	n/a	n/a	8
188.448	n/a	94224	dot_no4_ON	14	n/a	n/a	8
189	n/a	94500	dot_no4_OFF	24	n/a	n/a	8
190.314	n/a	95157	dot_no2_ON	12	n/a	n/a	8
190.864	n/a	95432	dot_no2_OFF	22	n/a	n/a	8
192.178	n/a	96089	dot_no7_ON	17	n/a	n/a	8
192.73	n/a	96365	dot_no7_OFF	27	n/a	n/a	8
194.044	n/a	97022	dot_no3_ON	13	n/a	n/a	8
194.598	n/a	97299	dot_no3_OFF	23	n/a	n/a	8
195.91	n/a	97955	dot_no8_ON	18	n/a	n/a	8
196.462	n/a	98231	dot_no8_OFF	28	n/a	n/a	8
197.776	n/a	98888	dot_no5_ON	15	n/a	n/a	8
198.328	n/a	99164	dot_no5_OFF	25	n/a	n/a	8
199.642	n/a	99821	dot_no2_ON	12	n/a	n/a	8
200.196	n/a	100098	dot_no2_OFF	22	n/a	n/a	8
201.51	n/a	100755	dot_no7_ON	17	n/a	n/a	8
202.062	n/a	101031	dot_no7_OFF	27	1-6-4-2-7-5-8-3-2-6	1-6-4-2-7-3-8-5-2-7	8
222.5	n/a	111250	learningBlock_5	35	n/a	n/a	8
222.508	n/a	111254	dot_no1_ON	11	n/a	n/a	8
223.064	n/a	111532	dot_no1_OFF	21	n/a	n/a	8
224.378	n/a	112189	dot_no6_ON	16	n/a	n/a	8
224.93	n/a	112465	dot_no6_OFF	26	n/a	n/a	8
226.242	n/a	113121	dot_no4_ON	14	n/a	n/a	8
226.794	n/a	113397	dot_no4_OFF	24	n/a	n/a	8
228.108	n/a	114054	dot_no2_ON	12	n/a	n/a	8
228.66	n/a	114330	dot_no2_OFF	22	n/a	n/a	8
229.974	n/a	114987	dot_no7_ON	17	n/a	n/a	8
230.528	n/a	115264	dot_no7_OFF	27	n/a	n/a	8
231.842	n/a	115921	dot_no3_ON	13	n/a	n/a	8
232.396	n/a	116198	dot_no3_OFF	23	n/a	n/a	8
233.71	n/a	116855	dot_no8_ON	18	n/a	n/a	8
234.264	n/a	117132	dot_no8_OFF	28	n/a	n/a	8
235.578	n/a	117789	dot_no5_ON	15	n/a	n/a	8
236.128	n/a	118064	dot_no5_OFF	25	n/a	n/a	8
237.442	n/a	118721	dot_no2_ON	12	n/a	n/a	8
237.992	n/a	118996	dot_no2_OFF	22	n/a	n/a	8
239.304	n/a	119652	dot_no7_ON	17	n/a	n/a	8
239.856	n/a	119928	dot_no7_OFF	27	5-1-4-8-6-5-2-8-3-7	1-6-4-2-7-3-8-5-2-7	8
259.998	n/a	129999	seqLearning_stop	50	n/a	n/a	8
264.003	n/a	132001.5	boundary	boundary	n/a	n/a	8
