onset	duration	sample	value	event_code	user_answer	correct_answer
0	n/a	0	break cnt	break cnt	n/a	n/a
39.376	n/a	19688	symbolSearch_start	92	n/a	n/a
42.306	n/a	21153	newPage	20	n/a	n/a
49.028	n/a	24514	trialResponse	14	0	0
53.798	n/a	26899	trialResponse	14	1	1
59.302	n/a	29651	trialResponse	14	0	0
65.87	n/a	32935	trialResponse	14	0	0
71.582	n/a	35791	trialResponse	14	0	0
78.19	n/a	39095	trialResponse	14	1	1
82.616	n/a	41308	trialResponse	14	0	0
89.43	n/a	44715	trialResponse	14	1	1
97.136	n/a	48568	trialResponse	14	0	0
102.294	n/a	51147	trialResponse	14	0	0
108.544	n/a	54272	trialResponse	14	0	0
113.576	n/a	56788	trialResponse	14	1	1
117.528	n/a	58764	trialResponse	14	0	0
120.808	n/a	60404	trialResponse	14	1	1
123.246	n/a	61623	trialResponse	14	1	1
124.2	n/a	62100	newPage	20	n/a	n/a
128.846	n/a	64423	trialResponse	14	1	1
133.79	n/a	66895	trialResponse	14	1	1
137.856	n/a	68928	trialResponse	14	0	0
140.798	n/a	70399	trialResponse	14	1	1
152.784	n/a	76392	trialResponse	14	0	0
157.056	n/a	78528	trialResponse	14	1	1
164.142	n/a	82071	trialResponse	14	0	0
164.15	n/a	82075	newPage	20	n/a	n/a
171.183	n/a	85591.5	boundary	boundary	n/a	n/a
