onset	duration	sample	value	event_code	user_answer	correct_answer	target_count
0	n/a	0	break cnt	break cnt	n/a	n/a	8
86.284	n/a	43142	seqLearning_start	91	n/a	n/a	8
95.614	n/a	47807	learningBlock_1	31	n/a	n/a	8
95.65	n/a	47825	dot_no1_ON	11	n/a	n/a	8
96.24	n/a	48120	dot_no1_OFF	21	n/a	n/a	8
97.56	n/a	48780	dot_no6_ON	16	n/a	n/a	8
98.148	n/a	49074	dot_no6_OFF	26	n/a	n/a	8
99.47	n/a	49735	dot_no4_ON	14	n/a	n/a	8
100.058	n/a	50029	dot_no4_OFF	24	n/a	n/a	8
101.38	n/a	50690	dot_no2_ON	12	n/a	n/a	8
101.97	n/a	50985	dot_no2_OFF	22	n/a	n/a	8
103.29	n/a	51645	dot_no7_ON	17	n/a	n/a	8
103.878	n/a	51939	dot_no7_OFF	27	n/a	n/a	8
105.21	n/a	52605	dot_no3_ON	13	n/a	n/a	8
105.798	n/a	52899	dot_no3_OFF	23	n/a	n/a	8
107.12	n/a	53560	dot_no8_ON	18	n/a	n/a	8
107.71	n/a	53855	dot_no8_OFF	28	n/a	n/a	8
109.03	n/a	54515	dot_no5_ON	15	n/a	n/a	8
109.62	n/a	54810	dot_no5_OFF	25	n/a	n/a	8
110.94	n/a	55470	dot_no2_ON	12	n/a	n/a	8
111.53	n/a	55765	dot_no2_OFF	22	n/a	n/a	8
112.85	n/a	56425	dot_no7_ON	17	n/a	n/a	8
113.438	n/a	56719	dot_no7_OFF	27	1-5-8-2-6-5-4-1-3-7	1-6-4-2-7-3-8-5-2-7	8
144.564	n/a	72282	learningBlock_2	32	n/a	n/a	8
144.58	n/a	72290	dot_no1_ON	11	n/a	n/a	8
145.17	n/a	72585	dot_no1_OFF	21	n/a	n/a	8
146.49	n/a	73245	dot_no6_ON	16	n/a	n/a	8
147.088	n/a	73544	dot_no6_OFF	26	n/a	n/a	8
148.41	n/a	74205	dot_no4_ON	14	n/a	n/a	8
149	n/a	74500	dot_no4_OFF	24	n/a	n/a	8
150.32	n/a	75160	dot_no2_ON	12	n/a	n/a	8
150.91	n/a	75455	dot_no2_OFF	22	n/a	n/a	8
152.23	n/a	76115	dot_no7_ON	17	n/a	n/a	8
152.82	n/a	76410	dot_no7_OFF	27	n/a	n/a	8
154.14	n/a	77070	dot_no3_ON	13	n/a	n/a	8
154.73	n/a	77365	dot_no3_OFF	23	n/a	n/a	8
156.05	n/a	78025	dot_no8_ON	18	n/a	n/a	8
156.64	n/a	78320	dot_no8_OFF	28	n/a	n/a	8
157.96	n/a	78980	dot_no5_ON	15	n/a	n/a	8
158.55	n/a	79275	dot_no5_OFF	25	n/a	n/a	8
159.87	n/a	79935	dot_no2_ON	12	n/a	n/a	8
160.46	n/a	80230	dot_no2_OFF	22	n/a	n/a	8
161.78	n/a	80890	dot_no7_ON	17	n/a	n/a	8
162.37	n/a	81185	dot_no7_OFF	27	1-6-8-4-2-3-5-7-1-7	1-6-4-2-7-3-8-5-2-7	8
188.554	n/a	94277	learningBlock_3	33	n/a	n/a	8
188.57	n/a	94285	dot_no1_ON	11	n/a	n/a	8
189.158	n/a	94579	dot_no1_OFF	21	n/a	n/a	8
190.48	n/a	95240	dot_no6_ON	16	n/a	n/a	8
191.07	n/a	95535	dot_no6_OFF	26	n/a	n/a	8
192.39	n/a	96195	dot_no4_ON	14	n/a	n/a	8
192.98	n/a	96490	dot_no4_OFF	24	n/a	n/a	8
194.3	n/a	97150	dot_no2_ON	12	n/a	n/a	8
194.89	n/a	97445	dot_no2_OFF	22	n/a	n/a	8
196.21	n/a	98105	dot_no7_ON	17	n/a	n/a	8
196.8	n/a	98400	dot_no7_OFF	27	n/a	n/a	8
198.12	n/a	99060	dot_no3_ON	13	n/a	n/a	8
198.71	n/a	99355	dot_no3_OFF	23	n/a	n/a	8
200.03	n/a	100015	dot_no8_ON	18	n/a	n/a	8
200.62	n/a	100310	dot_no8_OFF	28	n/a	n/a	8
201.94	n/a	100970	dot_no5_ON	15	n/a	n/a	8
202.53	n/a	101265	dot_no5_OFF	25	n/a	n/a	8
203.85	n/a	101925	dot_no2_ON	12	n/a	n/a	8
204.44	n/a	102220	dot_no2_OFF	22	n/a	n/a	8
205.762	n/a	102881	dot_no7_ON	17	n/a	n/a	8
206.35	n/a	103175	dot_no7_OFF	27	1-6-4-2-3-7-5-8-2-6	1-6-4-2-7-3-8-5-2-7	8
229.944	n/a	114972	learningBlock_4	34	n/a	n/a	8
229.952	n/a	114976	dot_no1_ON	11	n/a	n/a	8
230.54	n/a	115270	dot_no1_OFF	21	n/a	n/a	8
231.86	n/a	115930	dot_no6_ON	16	n/a	n/a	8
232.45	n/a	116225	dot_no6_OFF	26	n/a	n/a	8
233.77	n/a	116885	dot_no4_ON	14	n/a	n/a	8
234.36	n/a	117180	dot_no4_OFF	24	n/a	n/a	8
235.68	n/a	117840	dot_no2_ON	12	n/a	n/a	8
236.27	n/a	118135	dot_no2_OFF	22	n/a	n/a	8
237.59	n/a	118795	dot_no7_ON	17	n/a	n/a	8
238.18	n/a	119090	dot_no7_OFF	27	n/a	n/a	8
239.5	n/a	119750	dot_no3_ON	13	n/a	n/a	8
240.09	n/a	120045	dot_no3_OFF	23	n/a	n/a	8
241.412	n/a	120706	dot_no8_ON	18	n/a	n/a	8
242	n/a	121000	dot_no8_OFF	28	n/a	n/a	8
243.32	n/a	121660	dot_no5_ON	15	n/a	n/a	8
243.91	n/a	121955	dot_no5_OFF	25	n/a	n/a	8
245.23	n/a	122615	dot_no2_ON	12	n/a	n/a	8
245.82	n/a	122910	dot_no2_OFF	22	n/a	n/a	8
247.14	n/a	123570	dot_no7_ON	17	n/a	n/a	8
247.73	n/a	123865	dot_no7_OFF	27	1-6-4-2-3-7-5-8-5-7	1-6-4-2-7-3-8-5-2-7	8
272.448	n/a	136224	learningBlock_5	35	n/a	n/a	8
272.46	n/a	136230	dot_no1_ON	11	n/a	n/a	8
273.05	n/a	136525	dot_no1_OFF	21	n/a	n/a	8
274.37	n/a	137185	dot_no6_ON	16	n/a	n/a	8
274.96	n/a	137480	dot_no6_OFF	26	n/a	n/a	8
276.28	n/a	138140	dot_no4_ON	14	n/a	n/a	8
276.87	n/a	138435	dot_no4_OFF	24	n/a	n/a	8
278.192	n/a	139096	dot_no2_ON	12	n/a	n/a	8
278.78	n/a	139390	dot_no2_OFF	22	n/a	n/a	8
280.1	n/a	140050	dot_no7_ON	17	n/a	n/a	8
280.69	n/a	140345	dot_no7_OFF	27	n/a	n/a	8
282.01	n/a	141005	dot_no3_ON	13	n/a	n/a	8
282.6	n/a	141300	dot_no3_OFF	23	n/a	n/a	8
283.92	n/a	141960	dot_no8_ON	18	n/a	n/a	8
284.51	n/a	142255	dot_no8_OFF	28	n/a	n/a	8
285.83	n/a	142915	dot_no5_ON	15	n/a	n/a	8
286.42	n/a	143210	dot_no5_OFF	25	n/a	n/a	8
287.74	n/a	143870	dot_no2_ON	12	n/a	n/a	8
288.34	n/a	144170	dot_no2_OFF	22	n/a	n/a	8
289.662	n/a	144831	dot_no7_ON	17	n/a	n/a	8
290.25	n/a	145125	dot_no7_OFF	27	1-6-4-2-3-5-8-7-1-5	1-6-4-2-7-3-8-5-2-7	8
309.324	n/a	154662	seqLearning_stop	50	n/a	n/a	8
311.853	n/a	155926.5	boundary	boundary	n/a	n/a	8
