onset	duration	sample	value	event_code	user_answer	correct_answer	target_count
0	n/a	0	break cnt	break cnt	n/a	n/a	8
63.028	n/a	31514	seqLearning_start	91	n/a	n/a	8
72.366	n/a	36183	learningBlock_1	31	n/a	n/a	8
72.404	n/a	36202	dot_no1_ON	11	n/a	n/a	8
72.994	n/a	36497	dot_no1_OFF	21	n/a	n/a	8
74.32	n/a	37160	dot_no6_ON	16	n/a	n/a	8
74.902	n/a	37451	dot_no6_OFF	26	n/a	n/a	8
76.224	n/a	38112	dot_no4_ON	14	n/a	n/a	8
76.812	n/a	38406	dot_no4_OFF	24	n/a	n/a	8
78.134	n/a	39067	dot_no2_ON	12	n/a	n/a	8
78.722	n/a	39361	dot_no2_OFF	22	n/a	n/a	8
80.044	n/a	40022	dot_no7_ON	17	n/a	n/a	8
80.632	n/a	40316	dot_no7_OFF	27	n/a	n/a	8
81.954	n/a	40977	dot_no3_ON	13	n/a	n/a	8
82.542	n/a	41271	dot_no3_OFF	23	n/a	n/a	8
83.864	n/a	41932	dot_no8_ON	18	n/a	n/a	8
84.452	n/a	42226	dot_no8_OFF	28	n/a	n/a	8
85.774	n/a	42887	dot_no5_ON	15	n/a	n/a	8
86.362	n/a	43181	dot_no5_OFF	25	n/a	n/a	8
87.684	n/a	43842	dot_no2_ON	12	n/a	n/a	8
88.272	n/a	44136	dot_no2_OFF	22	n/a	n/a	8
89.592	n/a	44796	dot_no7_ON	17	n/a	n/a	8
90.182	n/a	45091	dot_no7_OFF	27	1-6-4-2-8-7-7-3-5-2	1-6-4-2-7-3-8-5-2-7	8
118.322	n/a	59161	learningBlock_2	32	n/a	n/a	8
118.334	n/a	59167	dot_no1_ON	11	n/a	n/a	8
118.922	n/a	59461	dot_no1_OFF	21	n/a	n/a	8
120.244	n/a	60122	dot_no6_ON	16	n/a	n/a	8
120.832	n/a	60416	dot_no6_OFF	26	n/a	n/a	8
122.154	n/a	61077	dot_no4_ON	14	n/a	n/a	8
122.742	n/a	61371	dot_no4_OFF	24	n/a	n/a	8
124.064	n/a	62032	dot_no2_ON	12	n/a	n/a	8
124.652	n/a	62326	dot_no2_OFF	22	n/a	n/a	8
125.974	n/a	62987	dot_no7_ON	17	n/a	n/a	8
126.562	n/a	63281	dot_no7_OFF	27	n/a	n/a	8
127.884	n/a	63942	dot_no3_ON	13	n/a	n/a	8
128.472	n/a	64236	dot_no3_OFF	23	n/a	n/a	8
129.804	n/a	64902	dot_no8_ON	18	n/a	n/a	8
130.394	n/a	65197	dot_no8_OFF	28	n/a	n/a	8
131.714	n/a	65857	dot_no5_ON	15	n/a	n/a	8
132.304	n/a	66152	dot_no5_OFF	25	n/a	n/a	8
133.624	n/a	66812	dot_no2_ON	12	n/a	n/a	8
134.212	n/a	67106	dot_no2_OFF	22	n/a	n/a	8
135.534	n/a	67767	dot_no7_ON	17	n/a	n/a	8
136.122	n/a	68061	dot_no7_OFF	27	1-6-4-2-7-3-8-5-2-7	1-6-4-2-7-3-8-5-2-7	8
163.572	n/a	81786	learningBlock_3	33	n/a	n/a	8
163.584	n/a	81792	dot_no1_ON	11	n/a	n/a	8
164.174	n/a	82087	dot_no1_OFF	21	n/a	n/a	8
165.494	n/a	82747	dot_no6_ON	16	n/a	n/a	8
166.084	n/a	83042	dot_no6_OFF	26	n/a	n/a	8
167.404	n/a	83702	dot_no4_ON	14	n/a	n/a	8
167.992	n/a	83996	dot_no4_OFF	24	n/a	n/a	8
169.314	n/a	84657	dot_no2_ON	12	n/a	n/a	8
169.902	n/a	84951	dot_no2_OFF	22	n/a	n/a	8
171.224	n/a	85612	dot_no7_ON	17	n/a	n/a	8
171.814	n/a	85907	dot_no7_OFF	27	n/a	n/a	8
173.134	n/a	86567	dot_no3_ON	13	n/a	n/a	8
173.724	n/a	86862	dot_no3_OFF	23	n/a	n/a	8
175.044	n/a	87522	dot_no8_ON	18	n/a	n/a	8
175.632	n/a	87816	dot_no8_OFF	28	n/a	n/a	8
176.954	n/a	88477	dot_no5_ON	15	n/a	n/a	8
177.542	n/a	88771	dot_no5_OFF	25	n/a	n/a	8
178.864	n/a	89432	dot_no2_ON	12	n/a	n/a	8
179.452	n/a	89726	dot_no2_OFF	22	n/a	n/a	8
180.774	n/a	90387	dot_no7_ON	17	n/a	n/a	8
181.362	n/a	90681	dot_no7_OFF	27	1-6-4-2-7-3-8-5-2-7	1-6-4-2-7-3-8-5-2-7	8
199.432	n/a	99716	learningBlock_4	34	n/a	n/a	8
199.444	n/a	99722	dot_no1_ON	11	n/a	n/a	8
200.032	n/a	100016	dot_no1_OFF	21	n/a	n/a	8
201.354	n/a	100677	dot_no6_ON	16	n/a	n/a	8
201.944	n/a	100972	dot_no6_OFF	26	n/a	n/a	8
203.264	n/a	101632	dot_no4_ON	14	n/a	n/a	8
203.854	n/a	101927	dot_no4_OFF	24	n/a	n/a	8
205.174	n/a	102587	dot_no2_ON	12	n/a	n/a	8
205.762	n/a	102881	dot_no2_OFF	22	n/a	n/a	8
207.084	n/a	103542	dot_no7_ON	17	n/a	n/a	8
207.674	n/a	103837	dot_no7_OFF	27	n/a	n/a	8
208.994	n/a	104497	dot_no3_ON	13	n/a	n/a	8
209.582	n/a	104791	dot_no3_OFF	23	n/a	n/a	8
210.904	n/a	105452	dot_no8_ON	18	n/a	n/a	8
211.492	n/a	105746	dot_no8_OFF	28	n/a	n/a	8
212.814	n/a	106407	dot_no5_ON	15	n/a	n/a	8
213.402	n/a	106701	dot_no5_OFF	25	n/a	n/a	8
214.724	n/a	107362	dot_no2_ON	12	n/a	n/a	8
215.312	n/a	107656	dot_no2_OFF	22	n/a	n/a	8
216.634	n/a	108317	dot_no7_ON	17	n/a	n/a	8
217.224	n/a	108612	dot_no7_OFF	27	1-6-4-2-7-3-8-5-2-7	1-6-4-2-7-3-8-5-2-7	8
238.568	n/a	119284	learningBlock_5	35	n/a	n/a	8
238.574	n/a	119287	dot_no1_ON	11	n/a	n/a	8
239.164	n/a	119582	dot_no1_OFF	21	n/a	n/a	8
240.484	n/a	120242	dot_no6_ON	16	n/a	n/a	8
241.074	n/a	120537	dot_no6_OFF	26	n/a	n/a	8
242.394	n/a	121197	dot_no4_ON	14	n/a	n/a	8
242.984	n/a	121492	dot_no4_OFF	24	n/a	n/a	8
244.304	n/a	122152	dot_no2_ON	12	n/a	n/a	8
244.894	n/a	122447	dot_no2_OFF	22	n/a	n/a	8
246.214	n/a	123107	dot_no7_ON	17	n/a	n/a	8
246.802	n/a	123401	dot_no7_OFF	27	n/a	n/a	8
248.124	n/a	124062	dot_no3_ON	13	n/a	n/a	8
248.714	n/a	124357	dot_no3_OFF	23	n/a	n/a	8
250.034	n/a	125017	dot_no8_ON	18	n/a	n/a	8
250.624	n/a	125312	dot_no8_OFF	28	n/a	n/a	8
251.944	n/a	125972	dot_no5_ON	15	n/a	n/a	8
252.534	n/a	126267	dot_no5_OFF	25	n/a	n/a	8
253.854	n/a	126927	dot_no2_ON	12	n/a	n/a	8
254.444	n/a	127222	dot_no2_OFF	22	n/a	n/a	8
255.764	n/a	127882	dot_no7_ON	17	n/a	n/a	8
256.354	n/a	128177	dot_no7_OFF	27	1-6-4-2-7-3-8-5-2-7	1-6-4-2-7-3-8-5-2-7	8
274.614	n/a	137307	seqLearning_stop	50	n/a	n/a	8
278.953	n/a	139476.5	boundary	boundary	n/a	n/a	8
